t_sys,gyro_x,gyro_y,gyro_z,acc_x,acc_y,acc_z
3271.759757973,0.001065264,-0.018109493,0.000000000,-0.559046090,0.405817181,9.296685219
3271.761582487,-0.013848436,0.010652643,0.005326321,-0.559046090,0.405817181,9.296685219
3271.763752964,-0.005326321,-0.009587379,0.000000000,-0.560243189,0.378283858,9.416395187
3271.765452672,-0.013848436,-0.009587379,-0.005326321,-0.560243189,0.378283858,9.416395187
3271.767398695,-0.006391586,-0.010652643,-0.007456850,-0.562637389,0.366312861,9.330204010
3271.769235054,-0.004261057,-0.008522115,-0.007456850,-0.562637389,0.366312861,9.330204010
3271.771583747,0.006391586,-0.012783172,-0.001065264,-0.562637389,0.366312861,9.330204010
3271.773546360,-0.009587379,-0.014913701,-0.004261057,-0.539892495,0.377086759,9.319430351
3271.775404338,-0.007456850,-0.007456850,-0.003195793,-0.539892495,0.377086759,9.319430351
3271.777302021,-0.005326321,-0.005326321,0.001065264,-0.574608386,0.374692559,9.339780807
3271.779575556,-0.006391586,-0.010652643,0.001065264,-0.574608386,0.374692559,9.339780807
3271.781593907,0.006391586,-0.022370551,-0.004261057,-0.574608386,0.374692559,9.339780807
3271.783795028,-0.007456850,-0.007456850,0.003195793,-0.586579442,0.369904160,9.307458878
3271.785877886,-0.006391586,-0.009587379,-0.014913701,-0.586579442,0.369904160,9.307458878
3271.787477732,-0.005326321,-0.012783172,0.002130529,-0.578199685,0.356736064,9.315838814
3271.789830747,0.002130529,-0.008522115,-0.005326321,-0.578199685,0.356736064,9.315838814
3271.791965005,-0.010652643,-0.010652643,0.003195793,-0.578199685,0.356736064,9.315838814
3271.794194085,-0.006391586,-0.014913701,-0.003195793,-0.545877993,0.380678058,9.375694275
3271.795997512,-0.002130529,-0.007456850,0.007456850,-0.545877993,0.380678058,9.375694275
3271.797938748,-0.003195793,-0.012783172,0.003195793,-0.579396784,0.395043284,9.282320023
3271.800420848,-0.015978964,-0.012783172,0.011717907,-0.579396784,0.395043284,9.282320023
3271.802138050,-0.009587379,-0.010652643,0.004261057,-0.579396784,0.395043284,9.282320023
3271.803877875,0.000000000,-0.013848436,-0.005326321,-0.557848990,0.355538964,9.363722801
3271.805682662,0.001065264,-0.006391586,0.001065264,-0.557848990,0.355538964,9.363722801
3271.807932498,-0.004261057,-0.017044229,0.005326321,-0.555454791,0.372298360,9.351752281
3271.809916194,0.000000000,-0.002130529,-0.005326321,-0.555454791,0.372298360,9.351752281
3271.811835708,0.001065264,-0.022370551,-0.002130529,-0.555454791,0.372298360,9.351752281
3271.813829025,-0.008522115,-0.005326321,-0.007456850,-0.548272192,0.398634583,9.294290543
3271.816140777,-0.004261057,-0.008522115,-0.007456850,-0.548272192,0.398634583,9.294290543
3271.818155768,-0.004261057,-0.005326321,-0.007456850,-0.550666392,0.384269387,9.339780807
3271.820118218,0.008522115,-0.010652643,0.002130529,-0.550666392,0.384269387,9.339780807
3271.821981008,-0.013848436,-0.008522115,0.005326321,-0.550666392,0.384269387,9.339780807
3271.823768498,-0.005326321,-0.012783172,-0.003195793,-0.563834488,0.378283858,9.381679535
3271.826189450,-0.006391586,-0.005326321,-0.002130529,-0.563834488,0.378283858,9.381679535
3271.828167686,-0.010652643,-0.004261057,0.004261057,-0.553060591,0.384269387,9.312247276
3271.830271799,-0.010652643,-0.005326321,-0.005326321,-0.553060591,0.384269387,9.312247276
3271.832162633,0.005326321,0.008522115,-0.001065264,-0.553060591,0.384269387,9.312247276
3271.834088478,0.002130529,-0.019174758,-0.004261057,-0.547075093,0.372298360,9.372102737
3271.836144149,-0.014913701,-0.004261057,0.007456850,-0.547075093,0.372298360,9.372102737
3271.838130908,-0.002130529,-0.008522115,-0.007456850,-0.562637389,0.371101260,9.336189270
3271.840105487,-0.006391586,-0.004261057,-0.001065264,-0.562637389,0.371101260,9.336189270
3271.842167518,-0.009587379,0.003195793,0.005326321,-0.560243189,0.412999779,9.309853554
3271.843951878,-0.003195793,-0.010652643,0.001065264,-0.560243189,0.412999779,9.309853554
3271.845957821,-0.002130529,-0.012783172,-0.006391586,-0.560243189,0.412999779,9.309853554
3271.847874274,-0.012783172,-0.008522115,0.006391586,-0.565031588,0.409408480,9.375694275
3271.850573044,-0.012783172,-0.008522115,0.006391586,-0.565031588,0.409408480,9.375694275
3271.852270995,-0.008522115,-0.012783172,-0.003195793,-0.548272192,0.386663586,9.306262016
3271.854268122,-0.010652643,-0.010652643,0.000000000,-0.548272192,0.386663586,9.306262016
3271.856161531,-0.002130529,-0.010652643,-0.001065264,-0.548272192,0.386663586,9.306262016
3271.858390453,-0.013848436,-0.008522115,0.001065264,-0.548272192,0.379480958,9.294290543
3271.860244655,-0.009587379,0.003195793,0.004261057,-0.548272192,0.379480958,9.294290543
3271.861957419,-0.001065264,-0.012783172,-0.004261057,-0.553060591,0.379480958,9.412803650
3271.863917725,-0.004261057,-0.004261057,-0.006391586,-0.553060591,0.379480958,9.412803650
3271.866157447,-0.003195793,-0.009587379,-0.004261057,-0.553060591,0.379480958,9.412803650
3271.868009362,0.000000000,-0.017044229,-0.005326321,-0.549469292,0.393846184,9.360131264
3271.869644362,0.003195793,-0.002130529,0.000000000,-0.549469292,0.393846184,9.360131264
3271.871564201,-0.008522115,-0.001065264,0.002130529,-0.567425787,0.379480958,9.294290543
3271.873901974,-0.015978964,-0.003195793,0.003195793,-0.567425787,0.379480958,9.294290543
3271.876236343,-0.003195793,-0.012783172,-0.004261057,-0.567425787,0.379480958,9.294290543
3271.878040595,-0.020240022,-0.012783172,-0.003195793,-0.536301196,0.366312861,9.317035675
3271.880034184,-0.013848436,-0.012783172,0.006391586,-0.536301196,0.366312861,9.317035675
3271.882133483,-0.009587379,-0.009587379,-0.010652643,-0.542286694,0.387860686,9.330204010
3271.884059346,-0.004261057,-0.011717907,0.002130529,-0.542286694,0.387860686,9.330204010
3271.886273308,-0.005326321,-0.020240022,-0.011717907,-0.542286694,0.387860686,9.330204010
3271.888042335,-0.008522115,-0.008522115,0.006391586,-0.554257691,0.414196908,9.326612473
3271.890236253,-0.009587379,-0.009587379,0.005326321,-0.554257691,0.414196908,9.326612473
3271.892039660,0.000000000,-0.014913701,-0.011717907,-0.584185243,0.378283858,9.345766068
3271.894058759,-0.010652643,-0.010652643,-0.009587379,-0.584185243,0.378283858,9.345766068
3271.896096878,-0.003195793,-0.010652643,0.002130529,-0.584185243,0.378283858,9.345766068
3271.898054525,-0.004261057,-0.010652643,-0.010652643,-0.545877993,0.393846184,9.351752281
3271.900517768,-0.009587379,0.004261057,0.007456850,-0.545877993,0.393846184,9.351752281
3271.902247111,0.004261057,-0.005326321,-0.002130529,-0.543483794,0.371101260,9.306262016
3271.904133966,0.004261057,-0.007456850,0.003195793,-0.543483794,0.371101260,9.306262016
3271.906196854,-0.012783172,-0.008522115,0.003195793,-0.543483794,0.371101260,9.306262016
3271.907981989,0.000000000,0.007456850,0.011717907,-0.585382342,0.362721562,9.364919662
3271.909959545,-0.010652643,-0.004261057,-0.006391586,-0.585382342,0.362721562,9.364919662
3271.912011505,-0.006391586,-0.014913701,-0.008522115,-0.599747539,0.372298360,9.307458878
3271.913979295,-0.014913701,-0.010652643,-0.009587379,-0.599747539,0.372298360,9.307458878
3271.916382674,0.009587379,-0.017044229,-0.003195793,-0.599747539,0.372298360,9.307458878
3271.918155403,-0.012783172,-0.006391586,-0.004261057,-0.544680893,0.390254885,9.326612473
3271.920274749,-0.006391586,-0.007456850,0.000000000,-0.544680893,0.390254885,9.326612473
3271.922089292,-0.005326321,-0.010652643,-0.004261057,-0.545877993,0.398634583,9.397241592
3271.924047912,0.000000000,-0.003195793,0.003195793,-0.545877993,0.398634583,9.397241592
3271.926062571,-0.013848436,0.003195793,-0.009587379,-0.545877993,0.398634583,9.397241592
3271.928187681,-0.010652643,-0.008522115,-0.005326321,-0.559046090,0.392649084,9.333795547
3271.930014771,0.004261057,-0.009587379,0.004261057,-0.559046090,0.392649084,9.333795547
3271.932007415,0.006391586,-0.012783172,0.005326321,-0.537498295,0.391451985,9.358934402
3271.934223301,-0.003195793,-0.002130529,0.000000000,-0.537498295,0.391451985,9.358934402
3271.936088436,-0.001065264,-0.015978964,-0.011717907,-0.537498295,0.391451985,9.358934402
3271.938248749,0.004261057,-0.014913701,-0.008522115,-0.555454791,0.362721562,9.336189270
3271.940197263,0.002130529,-0.011717907,0.005326321,-0.555454791,0.362721562,9.336189270
3271.942007802,-0.007456850,-0.009587379,0.002130529,-0.568622887,0.393846184,9.251194954
3271.944052297,-0.001065264,-0.014913701,-0.006391586,-0.568622887,0.393846184,9.251194954
3271.946048150,-0.010652643,-0.005326321,0.000000000,-0.568622887,0.393846184,9.251194954
3271.948154742,-0.013848436,-0.011717907,0.000000000,-0.560243189,0.403422982,9.325415611
3271.950160597,0.013848436,-0.010652643,0.002130529,-0.560243189,0.403422982,9.325415611
3271.951912251,-0.001065264,-0.018109493,-0.002130529,-0.548272192,0.386663586,9.375694275
3271.954163035,-0.008522115,-0.008522115,0.001065264,-0.548272192,0.386663586,9.375694275
3271.955913306,-0.008522115,-0.008522115,0.004261057,-0.548272192,0.386663586,9.375694275
3271.958120490,0.004261057,-0.003195793,0.000000000,-0.565031588,0.372298360,9.295488358
3271.960140908,0.002130529,-0.014913701,-0.009587379,-0.565031588,0.372298360,9.295488358
3271.961926295,-0.011717907,-0.001065264,0.009587379,-0.557848990,0.372298360,9.340977669
3271.963907504,-0.013848436,-0.011717907,0.000000000,-0.557848990,0.372298360,9.340977669
3271.965906304,-0.007456850,-0.013848436,-0.009587379,-0.557848990,0.372298360,9.340977669
3271.968038607,-0.004261057,-0.019174758,-0.009587379,-0.581790984,0.372298360,9.339780807
3271.970100037,-0.003195793,-0.012783172,-0.004261057,-0.581790984,0.372298360,9.339780807
3271.972147740,0.003195793,0.002130529,-0.002130529,-0.551863492,0.354341865,9.300276756
3271.974044299,0.010652643,-0.025566343,-0.005326321,-0.551863492,0.354341865,9.300276756
3271.976140119,-0.006391586,-0.013848436,-0.003195793,-0.551863492,0.354341865,9.300276756
3271.977990122,0.001065264,-0.018109493,-0.007456850,-0.554257691,0.373495460,9.372102737
3271.980093399,-0.004261057,-0.008522115,-0.005326321,-0.554257691,0.373495460,9.372102737
3271.981902032,-0.004261057,-0.011717907,-0.002130529,-0.580593884,0.393846184,9.317035675
3271.984175005,-0.011717907,-0.007456850,0.006391586,-0.580593884,0.393846184,9.317035675
3271.985964243,-0.005326321,-0.001065264,0.004261057,-0.580593884,0.393846184,9.317035675
3271.988134131,-0.020240022,-0.008522115,0.010652643,-0.551863492,0.385466486,9.320627213
3271.989949160,-0.006391586,-0.014913701,0.004261057,-0.551863492,0.385466486,9.320627213
3271.991934905,-0.001065264,-0.006391586,-0.007456850,-0.556651890,0.373495460,9.363722801
3271.994210230,-0.008522115,-0.009587379,0.003195793,-0.556651890,0.373495460,9.363722801
3271.996161030,0.000000000,-0.011717907,-0.006391586,-0.551863492,0.349553436,9.312247276
3271.998155277,-0.007456850,-0.006391586,-0.002130529,-0.551863492,0.349553436,9.312247276
3272.000357329,-0.007456850,-0.007456850,-0.006391586,-0.551863492,0.349553436,9.312247276
3272.002160837,-0.009587379,0.000000000,-0.005326321,-0.544680893,0.399831682,9.295488358
3272.004140373,0.003195793,-0.028762136,-0.013848436,-0.544680893,0.399831682,9.295488358
3272.005976457,-0.014913701,-0.008522115,-0.010652643,-0.591367841,0.372298360,9.402029991
3272.008174537,-0.004261057,-0.015978964,0.010652643,-0.591367841,0.372298360,9.402029991
3272.010176965,-0.002130529,-0.004261057,-0.003195793,-0.591367841,0.372298360,9.402029991
3272.011712213,-0.002130529,-0.011717907,0.003195793,-0.566228688,0.363918662,9.314641953
3272.014184384,-0.010652643,-0.013848436,-0.002130529,-0.566228688,0.363918662,9.314641953
3272.016176096,-0.006391586,-0.006391586,-0.011717907,-0.553060591,0.410605580,9.299078941
3272.018220097,0.008522115,-0.018109493,-0.008522115,-0.553060591,0.410605580,9.299078941
3272.020082187,-0.009587379,0.003195793,-0.009587379,-0.553060591,0.410605580,9.299078941
3272.021976308,-0.014913701,-0.001065264,0.005326321,-0.530315697,0.379480958,9.374496460
3272.023942831,0.001065264,-0.008522115,0.001065264,-0.530315697,0.379480958,9.374496460
3272.026119589,-0.010652643,-0.008522115,-0.007456850,-0.556651890,0.369904160,9.333795547
3272.028134652,-0.007456850,-0.009587379,0.002130529,-0.556651890,0.369904160,9.333795547
3272.030117914,-0.001065264,-0.008522115,-0.008522115,-0.556651890,0.369904160,9.333795547
3272.032118649,0.001065264,-0.011717907,0.000000000,-0.553060591,0.404620081,9.331400871
3272.033984182,-0.005326321,-0.011717907,0.011717907,-0.553060591,0.404620081,9.331400871
3272.036207786,-0.003195793,-0.013848436,0.001065264,-0.574608386,0.389057785,9.351752281
3272.038300360,-0.007456850,-0.005326321,0.000000000,-0.574608386,0.389057785,9.351752281
3272.040160824,-0.011717907,-0.008522115,-0.007456850,-0.574608386,0.389057785,9.351752281
3272.042268594,-0.006391586,-0.010652643,0.000000000,-0.551863492,0.384269387,9.319430351
3272.044157297,-0.010652643,-0.012783172,-0.002130529,-0.551863492,0.384269387,9.319430351
3272.046089546,-0.007456850,-0.006391586,-0.008522115,-0.545877993,0.391451985,9.333795547
3272.047925505,-0.002130529,-0.006391586,-0.003195793,-0.545877993,0.391451985,9.333795547
3272.050246804,-0.004261057,-0.003195793,-0.003195793,-0.545877993,0.391451985,9.333795547
3272.051994191,0.009587379,-0.012783172,0.000000000,-0.556651890,0.367509961,9.403226852
3272.053875883,-0.005326321,0.004261057,-0.002130529,-0.556651890,0.367509961,9.403226852
3272.055926723,0.007456850,-0.022370551,-0.012783172,-0.539892495,0.378283858,9.296685219
3272.057977504,-0.011717907,-0.018109493,-0.005326321,-0.539892495,0.378283858,9.296685219
3272.060269986,0.005326321,-0.012783172,-0.004261057,-0.539892495,0.378283858,9.296685219
3272.061951634,-0.011717907,-0.005326321,-0.008522115,-0.561440289,0.366312861,9.338583946
3272.064156615,-0.012783172,-0.006391586,-0.007456850,-0.561440289,0.366312861,9.338583946
3272.065965795,-0.004261057,-0.019174758,0.000000000,-0.562637389,0.375889659,9.385271072
3272.067894678,-0.006391586,-0.011717907,0.001065264,-0.562637389,0.375889659,9.385271072
3272.070171590,-0.004261057,0.002130529,-0.004261057,-0.562637389,0.375889659,9.385271072
3272.072014447,-0.003195793,-0.022370551,0.000000000,-0.561440289,0.389057785,9.339780807
3272.073923161,0.002130529,-0.009587379,-0.012783172,-0.561440289,0.389057785,9.339780807
3272.076184644,-0.006391586,-0.002130529,-0.004261057,-0.554257691,0.395043284,9.361329079
3272.077843790,-0.002130529,-0.009587379,-0.008522115,-0.554257691,0.395043284,9.361329079
3272.079862175,-0.010652643,0.004261057,0.002130529,-0.554257691,0.395043284,9.361329079
3272.081895768,-0.009587379,-0.015978964,-0.010652643,-0.545877993,0.393846184,9.375694275
3272.083889084,-0.010652643,-0.003195793,0.005326321,-0.545877993,0.393846184,9.375694275
3272.085796031,-0.008522115,-0.020240022,0.006391586,-0.577002585,0.369904160,9.265560150
3272.088182302,-0.006391586,-0.010652643,0.003195793,-0.577002585,0.369904160,9.265560150
3272.090171063,0.000000000,-0.009587379,0.003195793,-0.577002585,0.369904160,9.265560150
3272.091926471,-0.005326321,-0.006391586,-0.004261057,-0.568622887,0.381875157,9.326612473
3272.094212249,-0.008522115,0.004261057,0.000000000,-0.568622887,0.381875157,9.326612473
3272.095919636,-0.006391586,-0.014913701,-0.001065264,-0.578199685,0.356736064,9.355342865
3272.097912886,0.005326321,-0.010652643,-0.005326321,-0.578199685,0.356736064,9.355342865
3272.100301249,0.007456850,-0.007456850,-0.005326321,-0.578199685,0.356736064,9.355342865
3272.102203908,-0.014913701,-0.014913701,-0.004261057,-0.544680893,0.390254885,9.337387085
3272.104167594,-0.009587379,-0.006391586,-0.001065264,-0.544680893,0.390254885,9.337387085
3272.106174501,-0.003195793,-0.009587379,-0.001065264,-0.547075093,0.386663586,9.361329079
3272.108177017,-0.008522115,-0.001065264,0.005326321,-0.547075093,0.386663586,9.361329079
3272.110091760,-0.006391586,-0.002130529,0.003195793,-0.547075093,0.386663586,9.361329079
3272.111806029,-0.004261057,-0.001065264,0.004261057,-0.554257691,0.378283858,9.350554466
3272.114162057,-0.004261057,-0.006391586,-0.007456850,-0.554257691,0.378283858,9.350554466
3272.115910986,-0.002130529,-0.002130529,0.007456850,-0.542286694,0.393846184,9.329007149
3272.117863735,-0.008522115,-0.009587379,0.001065264,-0.542286694,0.393846184,9.329007149
3272.119665628,-0.009587379,-0.011717907,-0.007456850,-0.542286694,0.393846184,9.329007149
3272.122006737,-0.011717907,-0.002130529,0.011717907,-0.556651890,0.377086759,9.376891136
3272.124443174,0.000000000,-0.010652643,-0.002130529,-0.556651890,0.377086759,9.376891136
3272.126340106,0.005326321,-0.017044229,-0.006391586,-0.557848990,0.380678058,9.329007149
3272.128307343,-0.007456850,-0.005326321,-0.015978964,-0.557848990,0.380678058,9.329007149
3272.130342879,-0.002130529,-0.019174758,-0.007456850,-0.557848990,0.380678058,9.329007149
3272.131837134,-0.008522115,-0.013848436,-0.004261057,-0.579396784,0.391451985,9.282320023
3272.134016384,-0.014913701,-0.014913701,0.012783172,-0.579396784,0.391451985,9.282320023
3272.135965372,0.001065264,-0.017044229,0.006391586,-0.556651890,0.371101260,9.375694275
3272.137966156,-0.006391586,-0.008522115,-0.002130529,-0.556651890,0.371101260,9.375694275
3272.139973951,-0.001065264,-0.017044229,-0.004261057,-0.556651890,0.371101260,9.375694275
3272.142009611,-0.008522115,-0.001065264,-0.003195793,-0.548272192,0.374692559,9.329007149
3272.144258652,-0.009587379,-0.015978964,0.010652643,-0.548272192,0.374692559,9.329007149
3272.146037667,0.000000000,-0.006391586,0.007456850,-0.566228688,0.399831682,9.308655739
3272.148306228,-0.002130529,-0.012783172,-0.005326321,-0.566228688,0.399831682,9.308655739
3272.150070681,-0.004261057,-0.013848436,0.002130529,-0.566228688,0.399831682,9.308655739
3272.152000216,-0.010652643,-0.002130529,0.006391586,-0.578199685,0.403422982,9.392453194
3272.154263358,-0.008522115,-0.012783172,-0.004261057,-0.578199685,0.403422982,9.392453194
3272.156242654,-0.003195793,-0.017044229,-0.006391586,-0.559046090,0.393846184,9.299078941
3272.158234917,-0.010652643,-0.018109493,-0.008522115,-0.559046090,0.393846184,9.299078941
3272.160301598,0.001065264,0.002130529,-0.003195793,-0.553060591,0.372298360,9.264363289
3272.162250744,-0.007456850,-0.010652643,0.000000000,-0.553060591,0.372298360,9.264363289
3272.164227978,-0.004261057,-0.005326321,-0.006391586,-0.553060591,0.372298360,9.264363289
3272.166121942,-0.006391586,-0.012783172,-0.002130529,-0.541089594,0.397437483,9.392453194
3272.168079512,-0.012783172,-0.018109493,-0.008522115,-0.541089594,0.397437483,9.392453194
3272.170089276,-0.008522115,-0.002130529,-0.004261057,-0.555454791,0.378283858,9.348160744
3272.172053118,-0.003195793,-0.015978964,0.000000000,-0.555454791,0.378283858,9.348160744
3272.174093370,0.000000000,-0.014913701,-0.003195793,-0.555454791,0.378283858,9.348160744
3272.176162363,-0.004261057,-0.018109493,-0.013848436,-0.549469292,0.379480958,9.324218750
3272.178089824,-0.001065264,-0.012783172,0.007456850,-0.549469292,0.379480958,9.324218750
3272.180107901,-0.004261057,-0.011717907,-0.001065264,-0.563834488,0.367509961,9.384073257
3272.182055541,-0.003195793,-0.005326321,-0.004261057,-0.563834488,0.367509961,9.384073257
3272.184145987,-0.013848436,-0.019174758,-0.009587379,-0.563834488,0.367509961,9.384073257
3272.186110218,-0.012783172,-0.012783172,-0.007456850,-0.553060591,0.389057785,9.308655739
3272.187874081,-0.017044229,-0.008522115,-0.001065264,-0.553060591,0.389057785,9.308655739
3272.190106185,-0.017044229,-0.010652643,0.002130529,-0.572214186,0.416591108,9.327810287
3272.192093693,-0.003195793,-0.008522115,-0.004261057,-0.572214186,0.416591108,9.327810287
3272.194103053,-0.006391586,-0.003195793,0.000000000,-0.572214186,0.416591108,9.327810287
3272.196101422,0.001065264,-0.013848436,-0.003195793,-0.539892495,0.368707061,9.380482674
3272.198000752,-0.006391586,-0.012783172,0.002130529,-0.539892495,0.368707061,9.380482674
3272.200167046,0.000000000,-0.012783172,-0.002130529,-0.539892495,0.368707061,9.380482674
3272.202114536,0.002130529,-0.013848436,-0.008522115,-0.545877993,0.368707061,9.290699959
3272.204068909,-0.004261057,-0.002130529,-0.004261057,-0.545877993,0.368707061,9.290699959
3272.206147512,-0.005326321,-0.013848436,-0.006391586,-0.562637389,0.391451985,9.351752281
3272.208092513,0.002130529,0.000000000,-0.001065264,-0.562637389,0.391451985,9.351752281
3272.210094314,-0.010652643,-0.007456850,-0.009587379,-0.538695395,0.366312861,9.342175484
3272.212099751,-0.003195793,-0.006391586,0.001065264,-0.538695395,0.366312861,9.342175484
3272.214095287,-0.010652643,-0.023435814,-0.005326321,-0.538695395,0.366312861,9.342175484
3272.216087554,0.006391586,-0.015978964,-0.003195793,-0.539892495,0.371101260,9.284713745
3272.218100788,-0.004261057,-0.012783172,-0.003195793,-0.539892495,0.371101260,9.284713745
3272.220011181,-0.010652643,-0.008522115,-0.005326321,-0.555454791,0.402225882,9.349357605
3272.221905054,-0.006391586,-0.017044229,0.004261057,-0.555454791,0.402225882,9.349357605
3272.223955125,-0.011717907,0.000000000,0.005326321,-0.555454791,0.402225882,9.349357605
3272.226026661,-0.003195793,-0.005326321,0.004261057,-0.543483794,0.366312861,9.363722801
3272.228007315,0.000000000,-0.018109493,-0.010652643,-0.543483794,0.366312861,9.363722801
3272.230170508,-0.017044229,-0.010652643,0.008522115,-0.539892495,0.342370838,9.299078941
3272.232111453,-0.010652643,-0.022370551,0.000000000,-0.539892495,0.342370838,9.299078941
3272.234010611,-0.005326321,-0.005326321,-0.007456850,-0.539892495,0.342370838,9.299078941
3272.236005620,-0.005326321,-0.014913701,0.006391586,-0.531512797,0.383072257,9.352949142
3272.237769064,-0.012783172,-0.010652643,0.000000000,-0.531512797,0.383072257,9.352949142
3272.239976442,-0.009587379,0.004261057,-0.004261057,-0.537498295,0.397437483,9.325415611
3272.241944687,-0.015978964,-0.001065264,0.000000000,-0.537498295,0.397437483,9.325415611
3272.243873480,0.000000000,-0.018109493,0.002130529,-0.537498295,0.397437483,9.325415611
3272.245945551,-0.002130529,-0.010652643,-0.006391586,-0.562637389,0.389057785,9.284713745
3272.247943825,-0.008522115,-0.006391586,0.005326321,-0.562637389,0.389057785,9.284713745
3272.250126245,-0.006391586,-0.008522115,-0.002130529,-0.571017087,0.393846184,9.362525940
3272.251879521,0.002130529,-0.019174758,-0.007456850,-0.571017087,0.393846184,9.362525940
3272.253962967,-0.001065264,-0.001065264,-0.003195793,-0.571017087,0.393846184,9.362525940
3272.255917911,-0.001065264,-0.013848436,-0.012783172,-0.553060591,0.375889659,9.360131264
3272.257921192,0.005326321,-0.012783172,0.000000000,-0.553060591,0.375889659,9.360131264
3272.259974481,-0.008522115,-0.007456850,-0.005326321,-0.551863492,0.399831682,9.297882080
3272.261997801,-0.010652643,-0.004261057,-0.010652643,-0.551863492,0.399831682,9.297882080
3272.263997589,-0.012783172,-0.010652643,0.000000000,-0.551863492,0.399831682,9.297882080
3272.266012889,-0.009587379,-0.019174758,0.004261057,-0.551863492,0.409408480,9.392453194
3272.268011277,-0.003195793,-0.012783172,-0.005326321,-0.551863492,0.409408480,9.392453194
3272.269855857,-0.003195793,-0.012783172,-0.012783172,-0.560243189,0.379480958,9.330204010
3272.271846901,0.000000000,-0.014913701,0.002130529,-0.560243189,0.379480958,9.330204010
3272.273897658,0.005326321,-0.008522115,-0.017044229,-0.560243189,0.379480958,9.330204010
3272.275960958,-0.011717907,-0.011717907,-0.002130529,-0.572214186,0.398634583,9.288305283
3272.278077663,-0.005326321,-0.002130529,-0.001065264,-0.572214186,0.398634583,9.288305283
3272.280175925,-0.017044229,-0.006391586,0.001065264,-0.557848990,0.374692559,9.351752281
3272.282274241,-0.004261057,-0.002130529,-0.002130529,-0.557848990,0.374692559,9.351752281
3272.284167538,-0.014913701,0.004261057,-0.002130529,-0.557848990,0.374692559,9.351752281
3272.286125031,-0.014913701,-0.007456850,0.000000000,-0.561440289,0.347159237,9.331400871
3272.288269178,0.002130529,-0.010652643,0.000000000,-0.561440289,0.347159237,9.331400871
3272.290287504,0.001065264,-0.010652643,-0.001065264,-0.555454791,0.399831682,9.325415611
3272.292184117,-0.004261057,-0.003195793,-0.006391586,-0.555454791,0.399831682,9.325415611
3272.294226425,-0.014913701,-0.012783172,0.003195793,-0.555454791,0.399831682,9.325415611
3272.296175817,-0.011717907,-0.003195793,-0.006391586,-0.554257691,0.389057785,9.390059471
3272.298298287,-0.007456850,-0.008522115,-0.008522115,-0.554257691,0.389057785,9.390059471
3272.300290678,0.003195793,-0.010652643,0.000000000,-0.532709897,0.375889659,9.297882080
3272.302174904,0.004261057,-0.001065264,0.002130529,-0.532709897,0.375889659,9.297882080
3272.304107333,0.006391586,-0.015978964,-0.004261057,-0.554257691,0.393846184,9.293093681
3272.306286482,-0.003195793,-0.004261057,0.001065264,-0.554257691,0.393846184,9.293093681
3272.308123963,-0.015978964,-0.011717907,0.002130529,-0.554257691,0.393846184,9.293093681
3272.310150582,-0.002130529,-0.018109493,-0.006391586,-0.568622887,0.375889659,9.358934402
3272.312171194,-0.011717907,-0.013848436,-0.004261057,-0.568622887,0.375889659,9.358934402
3272.314323876,0.006391586,-0.017044229,0.009587379,-0.573411286,0.379480958,9.314641953
3272.316227165,-0.010652643,-0.014913701,-0.006391586,-0.573411286,0.379480958,9.314641953
3272.318148884,-0.005326321,-0.010652643,-0.011717907,-0.573411286,0.379480958,9.314641953
3272.320184662,-0.003195793,-0.024501080,-0.002130529,-0.565031588,0.390254885,9.344569206
3272.321934530,0.004261057,-0.005326321,0.001065264,-0.565031588,0.390254885,9.344569206
3272.324291213,-0.004261057,-0.017044229,-0.005326321,-0.574608386,0.368707061,9.362525940
3272.326168731,0.004261057,-0.002130529,-0.001065264,-0.574608386,0.368707061,9.362525940
3272.328185364,-0.001065264,-0.013848436,0.001065264,-0.574608386,0.368707061,9.362525940
3272.330224541,-0.003195793,-0.005326321,-0.003195793,-0.556651890,0.379480958,9.295488358
3272.332249499,-0.009587379,-0.003195793,-0.005326321,-0.556651890,0.379480958,9.295488358
3272.334165103,-0.008522115,-0.011717907,0.005326321,-0.535104096,0.357933164,9.351752281
3272.336184266,-0.005326321,-0.022370551,-0.005326321,-0.535104096,0.357933164,9.351752281
3272.337658394,-0.007456850,0.000000000,0.008522115,-0.535104096,0.357933164,9.351752281
3272.340170943,0.000000000,-0.005326321,-0.010652643,-0.547075093,0.375889659,9.342175484
3272.342147535,-0.010652643,-0.001065264,-0.002130529,-0.547075093,0.375889659,9.342175484
3272.344129360,0.007456850,-0.013848436,-0.012783172,-0.573411286,0.402225882,9.269151688
3272.346047873,-0.001065264,-0.008522115,0.002130529,-0.573411286,0.402225882,9.269151688
3272.348029987,-0.008522115,-0.003195793,-0.002130529,-0.573411286,0.402225882,9.269151688
3272.350269276,-0.008522115,-0.002130529,0.001065264,-0.539892495,0.393846184,9.315838814
3272.352245314,0.006391586,-0.018109493,-0.002130529,-0.539892495,0.393846184,9.315838814
3272.354060107,0.000000000,-0.013848436,-0.017044229,-0.557848990,0.367509961,9.382876396
3272.356140132,-0.003195793,-0.004261057,0.003195793,-0.557848990,0.367509961,9.382876396
3272.357960055,-0.009587379,-0.014913701,0.000000000,-0.557848990,0.367509961,9.382876396
3272.360270101,-0.001065264,-0.004261057,0.004261057,-0.551863492,0.404620081,9.299078941
3272.362033705,-0.021305285,-0.004261057,-0.008522115,-0.551863492,0.404620081,9.299078941
3272.364076660,-0.013848436,-0.006391586,0.000000000,-0.548272192,0.395043284,9.334992409
3272.365903280,0.006391586,-0.010652643,0.004261057,-0.548272192,0.395043284,9.334992409
3272.368104896,0.002130529,-0.011717907,-0.007456850,-0.548272192,0.395043284,9.334992409
3272.369903403,-0.010652643,-0.007456850,0.007456850,-0.569819987,0.344765037,9.333795547
3272.372173174,0.000000000,-0.006391586,0.011717907,-0.569819987,0.344765037,9.333795547
3272.373934864,0.003195793,-0.006391586,0.005326321,-0.584185243,0.384269387,9.296685219
3272.375921578,0.001065264,-0.010652643,-0.003195793,-0.584185243,0.384269387,9.296685219
3272.377857051,-0.013848436,-0.007456850,0.007456850,-0.584185243,0.384269387,9.296685219
3272.379934797,0.000000000,-0.004261057,0.001065264,-0.563834488,0.385466486,9.369708061
3272.381958932,-0.003195793,-0.018109493,-0.001065264,-0.563834488,0.385466486,9.369708061
3272.383998303,0.001065264,-0.011717907,0.001065264,-0.556651890,0.374692559,9.379284859
3272.386203893,0.003195793,-0.007456850,0.006391586,-0.556651890,0.374692559,9.379284859
3272.388197702,-0.008522115,-0.013848436,-0.004261057,-0.556651890,0.374692559,9.379284859
3272.390156350,-0.014913701,0.000000000,-0.001065264,-0.561440289,0.374692559,9.306262016
3272.391962990,-0.002130529,-0.006391586,-0.006391586,-0.561440289,0.374692559,9.306262016
3272.393918123,0.000000000,-0.003195793,0.001065264,-0.561440289,0.392649084,9.345766068
3272.396307097,-0.006391586,-0.009587379,-0.004261057,-0.561440289,0.392649084,9.345766068
3272.397996400,-0.012783172,-0.003195793,-0.008522115,-0.561440289,0.392649084,9.345766068
3272.400175122,0.003195793,-0.007456850,0.001065264,-0.561440289,0.372298360,9.302670479
3272.402030679,-0.017044229,-0.015978964,-0.003195793,-0.561440289,0.372298360,9.302670479
3272.404144238,-0.005326321,0.000000000,-0.004261057,-0.561440289,0.385466486,9.246406555
3272.406334534,-0.007456850,-0.011717907,-0.001065264,-0.561440289,0.385466486,9.246406555
3272.408191133,-0.012783172,0.001065264,0.002130529,-0.561440289,0.385466486,9.246406555
3272.410210309,0.000000000,-0.001065264,0.000000000,-0.555454791,0.395043284,9.390059471
3272.412196047,-0.008522115,-0.011717907,0.009587379,-0.555454791,0.395043284,9.390059471
3272.414165194,0.006391586,-0.009587379,0.003195793,-0.550666392,0.372298360,9.303867340
3272.416157713,-0.008522115,-0.004261057,-0.006391586,-0.550666392,0.372298360,9.303867340
3272.418145186,-0.001065264,-0.009587379,0.002130529,-0.550666392,0.372298360,9.303867340
3272.420144964,0.000000000,-0.012783172,-0.005326321,-0.575805485,0.362721562,9.312247276
3272.422194059,-0.004261057,-0.010652643,0.001065264,-0.575805485,0.362721562,9.312247276
3272.423846154,-0.003195793,-0.001065264,-0.005326321,-0.554257691,0.387860686,9.392453194
3272.426210311,-0.002130529,-0.020240022,0.001065264,-0.554257691,0.387860686,9.392453194
3272.427901300,-0.007456850,-0.017044229,0.002130529,-0.554257691,0.387860686,9.392453194
3272.429843449,-0.006391586,-0.011717907,-0.005326321,-0.539892495,0.384269387,9.318233490
3272.431987717,-0.014913701,-0.009587379,-0.004261057,-0.539892495,0.384269387,9.318233490
3272.433898514,-0.011717907,-0.004261057,0.003195793,-0.585382342,0.387860686,9.299078941
3272.435974183,0.005326321,-0.009587379,-0.008522115,-0.585382342,0.387860686,9.299078941
3272.438182037,-0.006391586,-0.006391586,-0.012783172,-0.585382342,0.387860686,9.299078941
3272.439943894,0.002130529,-0.013848436,0.001065264,-0.577002585,0.356736064,9.399636269
3272.442198230,-0.011717907,-0.002130529,-0.003195793,-0.577002585,0.356736064,9.399636269
3272.444171544,-0.004261057,-0.006391586,0.006391586,-0.556651890,0.360327363,9.331400871
3272.446042478,-0.006391586,-0.012783172,-0.002130529,-0.556651890,0.360327363,9.331400871
3272.447836220,0.000000000,-0.019174758,-0.002130529,-0.556651890,0.360327363,9.331400871
3272.450001583,0.001065264,-0.014913701,-0.004261057,-0.533906996,0.380678058,9.343372345
3272.452184750,-0.010652643,-0.011717907,0.001065264,-0.533906996,0.380678058,9.343372345
3272.453915533,0.001065264,-0.009587379,0.000000000,-0.544680893,0.383072257,9.380482674
3272.456148123,-0.014913701,-0.003195793,0.006391586,-0.544680893,0.383072257,9.380482674
3272.457956367,-0.010652643,-0.007456850,-0.005326321,-0.574608386,0.375889659,9.289502144
3272.460195493,-0.007456850,-0.005326321,0.006391586,-0.574608386,0.375889659,9.289502144
3272.462040593,0.007456850,-0.013848436,0.003195793,-0.574608386,0.375889659,9.289502144
3272.464011483,-0.006391586,-0.013848436,-0.001065264,-0.566228688,0.372298360,9.323021889
3272.466200393,-0.010652643,-0.012783172,0.004261057,-0.566228688,0.372298360,9.323021889
3272.467995485,-0.005326321,-0.008522115,-0.004261057,-0.563834488,0.381875157,9.342175484
3272.470323722,0.000000000,-0.009587379,-0.003195793,-0.563834488,0.381875157,9.342175484
3272.472196197,-0.010652643,-0.004261057,0.000000000,-0.563834488,0.381875157,9.342175484
3272.474202040,-0.003195793,-0.004261057,-0.006391586,-0.560243189,0.378283858,9.284713745
3272.476100340,-0.002130529,-0.024501080,-0.004261057,-0.560243189,0.378283858,9.284713745
3272.478177825,0.005326321,-0.015978964,0.001065264,-0.556651890,0.384269387,9.369708061
3272.480188593,-0.005326321,-0.021305285,-0.006391586,-0.556651890,0.384269387,9.369708061
3272.482221124,-0.002130529,-0.013848436,-0.006391586,-0.556651890,0.384269387,9.369708061
3272.484141731,-0.003195793,-0.015978964,0.002130529,-0.553060591,0.387860686,9.388861656
3272.486182754,-0.007456850,-0.011717907,0.001065264,-0.553060591,0.387860686,9.388861656
3272.488315236,-0.006391586,-0.018109493,-0.011717907,-0.553060591,0.393846184,9.285911560
3272.490007898,-0.020240022,-0.006391586,-0.002130529,-0.553060591,0.393846184,9.285911560
3272.492230943,-0.008522115,0.000000000,0.000000000,-0.553060591,0.393846184,9.285911560
3272.494143378,-0.004261057,-0.011717907,0.009587379,-0.533906996,0.378283858,9.334992409
3272.496185150,-0.001065264,-0.013848436,-0.002130529,-0.533906996,0.378283858,9.334992409
3272.498000108,0.002130529,-0.010652643,0.003195793,-0.557848990,0.369904160,9.357737541
3272.500183359,-0.001065264,-0.014913701,-0.002130529,-0.557848990,0.369904160,9.357737541
3272.501976970,-0.012783172,-0.007456850,-0.011717907,-0.557848990,0.369904160,9.357737541
3272.503955874,-0.013848436,-0.008522115,-0.006391586,-0.560243189,0.389057785,9.289502144
3272.505940573,-0.006391586,-0.004261057,0.005326321,-0.560243189,0.389057785,9.289502144
3272.508182401,-0.004261057,0.000000000,0.001065264,-0.538695395,0.375889659,9.388861656
3272.510051714,-0.007456850,0.001065264,-0.001065264,-0.538695395,0.375889659,9.388861656
3272.512079985,-0.005326321,-0.009587379,-0.007456850,-0.538695395,0.375889659,9.388861656
3272.514138216,-0.013848436,-0.019174758,-0.002130529,-0.550666392,0.368707061,9.381679535
3272.516165723,0.001065264,-0.017044229,0.000000000,-0.550666392,0.368707061,9.381679535
3272.518146539,-0.003195793,-0.014913701,-0.008522115,-0.557848990,0.393846184,9.302670479
3272.520173147,-0.008522115,-0.014913701,0.006391586,-0.557848990,0.393846184,9.302670479
3272.522159733,0.003195793,-0.014913701,-0.002130529,-0.557848990,0.393846184,9.302670479
3272.524166282,-0.008522115,-0.006391586,-0.008522115,-0.551863492,0.374692559,9.356540680
3272.526193059,-0.005326321,-0.005326321,0.009587379,-0.551863492,0.374692559,9.356540680
3272.528169711,0.000000000,-0.004261057,-0.010652643,-0.548272192,0.377086759,9.334992409
3272.530210541,-0.003195793,0.001065264,-0.006391586,-0.548272192,0.377086759,9.334992409
3272.532193777,0.006391586,-0.013848436,-0.011717907,-0.548272192,0.377086759,9.334992409
3272.534209645,-0.010652643,-0.004261057,0.002130529,-0.554257691,0.386663586,9.329007149
3272.536211338,-0.005326321,-0.008522115,0.000000000,-0.554257691,0.386663586,9.329007149
3272.538208755,-0.021305285,-0.003195793,-0.003195793,-0.548272192,0.381875157,9.399636269
3272.540197674,-0.010652643,-0.011717907,-0.014913701,-0.548272192,0.381875157,9.399636269
3272.542253544,-0.012783172,-0.001065264,-0.006391586,-0.548272192,0.381875157,9.399636269
3272.544250201,-0.006391586,0.002130529,-0.009587379,-0.547075093,0.360327363,9.307458878
3272.546146900,-0.002130529,-0.004261057,0.008522115,-0.547075093,0.360327363,9.307458878
3272.548159499,-0.004261057,-0.004261057,0.000000000,-0.569819987,0.399831682,9.278728485
3272.550252808,-0.008522115,-0.022370551,-0.012783172,-0.569819987,0.399831682,9.278728485
3272.551973036,-0.002130529,-0.013848436,0.000000000,-0.569819987,0.399831682,9.278728485
3272.554101923,-0.010652643,-0.009587379,0.010652643,-0.560243189,0.384269387,9.372102737
3272.556357765,0.009587379,-0.001065264,-0.002130529,-0.560243189,0.384269387,9.372102737
3272.558006920,0.001065264,-0.013848436,-0.009587379,-0.587776542,0.373495460,9.330204010
3272.559941013,-0.014913701,-0.019174758,-0.004261057,-0.587776542,0.373495460,9.330204010
3272.562113504,-0.004261057,-0.007456850,-0.002130529,-0.587776542,0.373495460,9.330204010
3272.564160138,-0.007456850,-0.009587379,-0.004261057,-0.569819987,0.383072257,9.306262016
3272.565927486,-0.009587379,-0.004261057,0.004261057,-0.569819987,0.383072257,9.306262016
3272.568112685,-0.018109493,-0.003195793,0.002130529,-0.536301196,0.379480958,9.398438454
3272.569793471,0.005326321,0.004261057,-0.008522115,-0.536301196,0.379480958,9.398438454
3272.572128350,0.001065264,-0.009587379,-0.006391586,-0.536301196,0.379480958,9.398438454
3272.574154182,-0.007456850,-0.022370551,-0.006391586,-0.563834488,0.368707061,9.321824074
3272.576158371,-0.013848436,-0.010652643,-0.003195793,-0.563834488,0.368707061,9.321824074
3272.577970961,-0.003195793,-0.018109493,0.006391586,-0.549469292,0.387860686,9.301473618
3272.580222489,-0.001065264,-0.010652643,-0.013848436,-0.549469292,0.387860686,9.301473618
3272.582207463,-0.010652643,-0.006391586,-0.010652643,-0.549469292,0.387860686,9.301473618
3272.584207272,0.001065264,-0.003195793,-0.005326321,-0.566228688,0.359130263,9.375694275
3272.586200771,0.006391586,-0.010652643,-0.005326321,-0.566228688,0.359130263,9.375694275
3272.588404801,-0.004261057,-0.003195793,0.002130529,-0.551863492,0.368707061,9.238027573
3272.590388535,-0.007456850,-0.022370551,-0.002130529,-0.551863492,0.368707061,9.238027573
3272.592016134,0.004261057,-0.008522115,0.002130529,-0.551863492,0.368707061,9.238027573
3272.594174309,-0.002130529,-0.015978964,0.003195793,-0.541089594,0.409408480,9.339780807
3272.596199560,-0.011717907,-0.002130529,-0.007456850,-0.541089594,0.409408480,9.339780807
3272.598286552,-0.004261057,-0.012783172,0.000000000,-0.541089594,0.409408480,9.339780807
3272.600059634,-0.006391586,-0.022370551,0.001065264,-0.574608386,0.383072257,9.380482674
3272.602242584,0.008522115,-0.015978964,0.001065264,-0.560243189,0.384269387,9.344569206
3272.604287991,0.003195793,-0.018109493,0.002130529,-0.560243189,0.384269387,9.344569206
3272.606263881,0.007456850,-0.009587379,-0.011717907,-0.560243189,0.384269387,9.344569206
3272.608297524,-0.002130529,-0.007456850,-0.001065264,-0.543483794,0.399831682,9.332598686
3272.610050263,-0.010652643,-0.005326321,0.002130529,-0.543483794,0.399831682,9.332598686
3272.612256884,-0.008522115,-0.007456850,0.002130529,-0.533906996,0.383072257,9.351752281
3272.614074611,-0.006391586,-0.008522115,-0.004261057,-0.533906996,0.383072257,9.351752281
3272.616090501,-0.003195793,-0.012783172,0.000000000,-0.533906996,0.383072257,9.351752281
3272.618283783,0.000000000,-0.010652643,0.004261057,-0.575805485,0.391451985,9.289502144
3272.620152642,-0.002130529,-0.010652643,0.001065264,-0.575805485,0.391451985,9.289502144
3272.622333528,-0.002130529,-0.012783172,0.002130529,-0.560243189,0.361524463,9.366117477
3272.624067867,-0.008522115,-0.003195793,0.001065264,-0.560243189,0.361524463,9.366117477
3272.626083607,-0.002130529,-0.003195793,0.000000000,-0.560243189,0.361524463,9.366117477
3272.628293177,0.001065264,-0.011717907,-0.010652643,-0.560243189,0.381875157,9.330204010
3272.630111199,-0.002130529,-0.004261057,-0.004261057,-0.560243189,0.381875157,9.330204010
3272.632286226,0.002130529,-0.006391586,-0.003195793,-0.543483794,0.377086759,9.329007149
3272.634209617,0.001065264,-0.022370551,-0.005326321,-0.543483794,0.377086759,9.329007149
3272.636276023,-0.017044229,-0.004261057,-0.002130529,-0.543483794,0.377086759,9.329007149
3272.638281010,0.002130529,-0.014913701,-0.010652643,-0.563834488,0.385466486,9.381679535
3272.640256253,-0.008522115,-0.003195793,0.000000000,-0.563834488,0.385466486,9.381679535
3272.642260876,-0.004261057,-0.007456850,-0.005326321,-0.568622887,0.392649084,9.338583946
3272.644068253,-0.012783172,-0.011717907,0.000000000,-0.568622887,0.392649084,9.338583946
3272.646067196,-0.007456850,-0.008522115,0.006391586,-0.568622887,0.392649084,9.338583946
3272.648084552,0.008522115,-0.012783172,-0.003195793,-0.541089594,0.398634583,9.282320023
3272.650149264,-0.023435814,-0.002130529,0.004261057,-0.541089594,0.398634583,9.282320023
3272.652254156,0.003195793,0.005326321,0.002130529,-0.566228688,0.371101260,9.346963882
3272.654224212,-0.004261057,-0.010652643,-0.010652643,-0.566228688,0.371101260,9.346963882
3272.656288635,0.002130529,-0.017044229,-0.008522115,-0.566228688,0.371101260,9.346963882
3272.658293060,-0.012783172,-0.006391586,0.007456850,-0.559046090,0.368707061,9.354146004
3272.660089020,-0.002130529,-0.008522115,-0.005326321,-0.559046090,0.368707061,9.354146004
3272.662091924,-0.011717907,-0.006391586,0.009587379,-0.554257691,0.383072257,9.318233490
3272.664118180,-0.008522115,-0.010652643,-0.006391586,-0.554257691,0.383072257,9.318233490
3272.666076606,-0.008522115,-0.013848436,-0.008522115,-0.554257691,0.383072257,9.318233490
3272.668328024,0.004261057,-0.005326321,-0.005326321,-0.566228688,0.393846184,9.391256332
3272.670260096,-0.007456850,-0.008522115,-0.013848436,-0.566228688,0.393846184,9.391256332
3272.672263221,-0.002130529,-0.017044229,-0.010652643,-0.545877993,0.361524463,9.332598686
3272.674285255,-0.012783172,-0.004261057,-0.005326321,-0.545877993,0.361524463,9.332598686
3272.676284071,-0.011717907,-0.010652643,-0.002130529,-0.545877993,0.361524463,9.332598686
3272.678297240,-0.011717907,-0.019174758,-0.001065264,-0.548272192,0.389057785,9.290699959
3272.680288121,-0.006391586,-0.009587379,0.004261057,-0.548272192,0.389057785,9.290699959
3272.682292784,-0.011717907,-0.005326321,-0.009587379,-0.571017087,0.395043284,9.380482674
3272.684358335,-0.001065264,-0.011717907,-0.006391586,-0.571017087,0.395043284,9.380482674
3272.686148347,-0.012783172,-0.009587379,-0.006391586,-0.571017087,0.395043284,9.380482674
3272.688243553,-0.008522115,-0.006391586,-0.005326321,-0.566228688,0.383072257,9.324218750
3272.690254487,-0.010652643,-0.007456850,-0.001065264,-0.566228688,0.383072257,9.324218750
3272.692225251,-0.012783172,-0.008522115,-0.002130529,-0.554257691,0.383072257,9.337387085
3272.694249585,0.004261057,-0.007456850,-0.009587379,-0.554257691,0.383072257,9.337387085
3272.696428275,0.006391586,-0.012783172,-0.006391586,-0.554257691,0.383072257,9.337387085
3272.698308433,-0.010652643,-0.002130529,-0.004261057,-0.554257691,0.384269387,9.362525940
3272.700276468,-0.013848436,-0.010652643,-0.008522115,-0.554257691,0.384269387,9.362525940
3272.702297785,-0.002130529,-0.002130529,-0.004261057,-0.567425787,0.377086759,9.313444138
3272.704129715,-0.005326321,-0.006391586,-0.014913701,-0.567425787,0.377086759,9.313444138
3272.706267079,-0.004261057,-0.007456850,0.003195793,-0.567425787,0.377086759,9.313444138
3272.708266365,-0.017044229,-0.007456850,0.003195793,-0.553060591,0.372298360,9.301473618
3272.710265899,0.000000000,-0.013848436,-0.003195793,-0.553060591,0.372298360,9.301473618
3272.712046269,-0.001065264,-0.009587379,-0.003195793,-0.553060591,0.372298360,9.301473618
3272.714376558,-0.003195793,-0.010652643,0.000000000,-0.538695395,0.389057785,9.360131264
3272.716382576,0.000000000,-0.003195793,-0.009587379,-0.538695395,0.389057785,9.360131264
3272.718286467,0.005326321,-0.006391586,-0.003195793,-0.591367841,0.407014281,9.307458878
3272.720287426,-0.008522115,-0.013848436,0.001065264,-0.591367841,0.407014281,9.307458878
3272.722238593,-0.005326321,-0.001065264,-0.005326321,-0.567425787,0.380678058,9.323021889
3272.724134483,0.002130529,0.000000000,-0.008522115,-0.567425787,0.380678058,9.323021889
3272.726278104,-0.008522115,-0.008522115,0.001065264,-0.567425787,0.380678058,9.323021889
3272.728293615,-0.012783172,-0.012783172,-0.001065264,-0.568622887,0.377086759,9.374496460
3272.730285120,-0.008522115,-0.005326321,-0.004261057,-0.568622887,0.377086759,9.374496460
3272.732295022,-0.001065264,-0.011717907,0.002130529,-0.557848990,0.378283858,9.279925346
3272.734135261,-0.005326321,-0.009587379,0.003195793,-0.557848990,0.378283858,9.279925346
3272.736084822,-0.004261057,-0.018109493,-0.005326321,-0.557848990,0.378283858,9.279925346
3272.738264092,0.008522115,-0.007456850,-0.003195793,-0.568622887,0.407014281,9.299078941
3272.740281695,-0.018109493,-0.013848436,0.009587379,-0.568622887,0.407014281,9.299078941
3272.741981043,0.000000000,-0.011717907,-0.003195793,-0.562637389,0.390254885,9.366117477
3272.744647791,-0.008522115,-0.003195793,-0.003195793,-0.562637389,0.390254885,9.366117477
3272.745625696,-0.007456850,-0.018109493,-0.010652643,-0.562637389,0.390254885,9.366117477
3272.747465493,-0.013848436,-0.002130529,0.000000000,-0.560243189,0.392649084,9.273940086
3272.749423912,-0.005326321,-0.004261057,-0.009587379,-0.560243189,0.392649084,9.273940086
3272.751536949,-0.003195793,-0.017044229,-0.008522115,-0.556651890,0.373495460,9.358934402
3272.753535263,0.000000000,-0.014913701,-0.001065264,-0.556651890,0.373495460,9.358934402
3272.755467687,0.001065264,-0.007456850,-0.011717907,-0.556651890,0.381875157,9.379284859
3272.757489798,-0.005326321,-0.011717907,-0.004261057,-0.556651890,0.381875157,9.379284859
3272.759446755,-0.010652643,-0.012783172,-0.001065264,-0.556651890,0.381875157,9.379284859
3272.761566948,0.003195793,-0.009587379,0.000000000,-0.533906996,0.389057785,9.330204010
3272.763532495,-0.015978964,-0.006391586,0.001065264,-0.533906996,0.389057785,9.330204010
3272.765540024,-0.004261057,-0.011717907,-0.009587379,-0.541089594,0.377086759,9.346963882
3272.767750397,-0.010652643,-0.010652643,-0.004261057,-0.541089594,0.377086759,9.346963882
3272.769879450,0.004261057,-0.010652643,0.000000000,-0.541089594,0.377086759,9.346963882
3272.771769842,-0.001065264,-0.018109493,-0.007456850,-0.572214186,0.373495460,9.345766068
3272.773696447,-0.009587379,-0.007456850,-0.007456850,-0.572214186,0.373495460,9.345766068
3272.775744176,-0.004261057,-0.006391586,0.012783172,-0.571017087,0.383072257,9.312247276
3272.777696326,0.002130529,-0.018109493,-0.009587379,-0.571017087,0.383072257,9.312247276
3272.779728013,-0.005326321,0.000000000,0.008522115,-0.571017087,0.383072257,9.312247276
3272.781647659,-0.007456850,-0.008522115,0.000000000,-0.550666392,0.393846184,9.385271072
3272.783724594,-0.007456850,-0.009587379,-0.013848436,-0.550666392,0.393846184,9.385271072
3272.785869610,-0.012783172,-0.006391586,0.008522115,-0.542286694,0.375889659,9.344569206
3272.787774510,-0.004261057,-0.007456850,-0.003195793,-0.542286694,0.375889659,9.344569206
3272.789637720,-0.001065264,-0.006391586,-0.002130529,-0.542286694,0.375889659,9.344569206
3272.791652923,-0.006391586,-0.007456850,0.000000000,-0.543483794,0.404620081,9.301473618
3272.793807982,-0.004261057,-0.012783172,-0.004261057,-0.543483794,0.404620081,9.301473618
3272.795699634,-0.003195793,-0.008522115,0.000000000,-0.545877993,0.383072257,9.368511200
3272.797566293,-0.011717907,-0.014913701,-0.003195793,-0.545877993,0.383072257,9.368511200
3272.799926592,-0.007456850,-0.012783172,-0.007456850,-0.545877993,0.383072257,9.368511200
3272.801661688,-0.010652643,-0.014913701,-0.006391586,-0.535104096,0.355538964,9.306262016
3272.803590218,-0.001065264,-0.009587379,-0.002130529,-0.535104096,0.355538964,9.306262016
3272.805920832,-0.006391586,-0.003195793,-0.001065264,-0.561440289,0.375889659,9.282320023
3272.807736768,-0.004261057,-0.004261057,-0.005326321,-0.561440289,0.375889659,9.282320023
3272.809705318,-0.007456850,-0.014913701,0.008522115,-0.561440289,0.375889659,9.282320023
3272.811731484,-0.007456850,-0.004261057,0.004261057,-0.569819987,0.384269387,9.412803650
3272.813693773,0.006391586,-0.013848436,-0.007456850,-0.569819987,0.384269387,9.412803650
3272.815695315,0.002130529,-0.013848436,0.010652643,-0.563834488,0.377086759,9.338583946
3272.817706721,-0.002130529,-0.008522115,-0.005326321,-0.563834488,0.377086759,9.338583946
3272.819700058,-0.002130529,-0.014913701,-0.005326321,-0.563834488,0.377086759,9.338583946
3272.821570736,0.002130529,-0.003195793,0.002130529,-0.574608386,0.392649084,9.281123161
3272.823894296,0.002130529,-0.013848436,-0.009587379,-0.574608386,0.392649084,9.281123161
3272.825699436,-0.007456850,0.001065264,-0.004261057,-0.568622887,0.396240383,9.368511200
3272.827716133,0.009587379,-0.010652643,0.003195793,-0.568622887,0.396240383,9.368511200
3272.829652129,-0.009587379,-0.003195793,0.003195793,-0.568622887,0.396240383,9.368511200
3272.831665768,-0.006391586,-0.011717907,-0.001065264,-0.568622887,0.380678058,9.306262016
3272.833652489,-0.005326321,-0.006391586,0.004261057,-0.568622887,0.380678058,9.306262016
3272.835759461,-0.005326321,-0.004261057,-0.005326321,-0.550666392,0.365115762,9.334992409
3272.837866146,-0.014913701,-0.004261057,-0.008522115,-0.550666392,0.365115762,9.334992409
3272.839615705,-0.009587379,-0.008522115,-0.009587379,-0.550666392,0.365115762,9.334992409
3272.841699273,-0.001065264,-0.008522115,0.007456850,-0.547075093,0.367509961,9.355342865
3272.843710292,0.000000000,-0.017044229,-0.002130529,-0.547075093,0.367509961,9.355342865
3272.845558664,0.000000000,-0.002130529,0.008522115,-0.579396784,0.401028782,9.299078941
3272.847542147,-0.007456850,-0.005326321,-0.004261057,-0.579396784,0.401028782,9.299078941
3272.849840168,-0.006391586,-0.010652643,-0.003195793,-0.579396784,0.401028782,9.299078941
3272.851639069,0.009587379,-0.015978964,-0.009587379,-0.561440289,0.374692559,9.317035675
3272.853646087,-0.006391586,-0.011717907,-0.004261057,-0.561440289,0.374692559,9.317035675
3272.855848562,0.006391586,-0.011717907,0.001065264,-0.569819987,0.385466486,9.364919662
3272.857584282,-0.003195793,-0.015978964,-0.014913701,-0.569819987,0.385466486,9.364919662
3272.859875258,-0.007456850,-0.015978964,-0.001065264,-0.569819987,0.385466486,9.364919662
3272.861658536,-0.008522115,0.002130529,0.001065264,-0.574608386,0.373495460,9.305065155
3272.863895697,-0.004261057,-0.006391586,0.002130529,-0.574608386,0.373495460,9.305065155
3272.865564569,0.003195793,-0.004261057,-0.007456850,-0.554257691,0.384269387,9.303867340
3272.867595858,0.002130529,-0.011717907,-0.013848436,-0.554257691,0.384269387,9.303867340
3272.869830981,-0.004261057,-0.006391586,-0.009587379,-0.554257691,0.384269387,9.303867340
3272.871516348,-0.009587379,-0.014913701,-0.005326321,-0.550666392,0.383072257,9.362525940
3272.873797351,-0.012783172,0.005326321,0.004261057,-0.550666392,0.383072257,9.362525940
3272.875557377,-0.011717907,0.001065264,0.002130529,-0.584185243,0.387860686,9.320627213
3272.877893099,-0.001065264,-0.008522115,-0.007456850,-0.584185243,0.387860686,9.320627213
3272.879637657,0.005326321,-0.012783172,0.001065264,-0.584185243,0.387860686,9.320627213
3272.881840532,-0.010652643,-0.004261057,-0.008522115,-0.562637389,0.405817181,9.355342865
3272.883508027,-0.004261057,0.002130529,0.006391586,-0.562637389,0.405817181,9.355342865
3272.885607487,0.002130529,-0.015978964,0.003195793,-0.548272192,0.361524463,9.352949142
3272.887861631,-0.019174758,-0.002130529,0.001065264,-0.548272192,0.361524463,9.352949142
3272.889724720,0.001065264,-0.004261057,0.006391586,-0.548272192,0.361524463,9.352949142
3272.891731868,-0.005326321,-0.005326321,-0.008522115,-0.547075093,0.379480958,9.281123161
3272.893723759,0.005326321,-0.006391586,0.001065264,-0.547075093,0.379480958,9.281123161
3272.895680288,-0.008522115,-0.004261057,-0.007456850,-0.560243189,0.395043284,9.339780807
3272.897540918,-0.007456850,-0.005326321,0.004261057,-0.560243189,0.395043284,9.339780807
3272.899385236,0.000000000,-0.015978964,-0.011717907,-0.560243189,0.395043284,9.339780807
3272.901365935,-0.002130529,-0.013848436,-0.004261057,-0.533906996,0.366312861,9.364919662
3272.903356786,-0.005326321,-0.004261057,-0.006391586,-0.533906996,0.366312861,9.364919662
3272.905360996,0.000000000,-0.025566343,-0.008522115,-0.555454791,0.385466486,9.285911560
3272.907467481,-0.007456850,-0.013848436,-0.008522115,-0.555454791,0.385466486,9.285911560
3272.909395785,0.004261057,-0.009587379,0.002130529,-0.554257691,0.384269387,9.349357605
3272.911779664,-0.004261057,-0.004261057,0.008522115,-0.554257691,0.384269387,9.349357605
3272.913325244,-0.003195793,-0.006391586,0.001065264,-0.554257691,0.384269387,9.349357605
3272.915286425,0.003195793,0.000000000,0.004261057,-0.566228688,0.378283858,9.332598686
3272.917287394,-0.012783172,-0.010652643,-0.005326321,-0.566228688,0.378283858,9.332598686
3272.919297458,0.001065264,-0.004261057,0.003195793,-0.572214186,0.383072257,9.306262016
3272.921245802,-0.012783172,-0.011717907,-0.020240022,-0.572214186,0.383072257,9.306262016
3272.923286719,-0.002130529,-0.009587379,0.002130529,-0.572214186,0.383072257,9.306262016
3272.925334741,-0.009587379,-0.009587379,-0.005326321,-0.555454791,0.384269387,9.333795547
3272.927300836,-0.007456850,-0.007456850,0.003195793,-0.555454791,0.384269387,9.333795547
3272.929382614,-0.004261057,-0.020240022,0.001065264,-0.571017087,0.379480958,9.349357605
3272.931309086,-0.002130529,-0.011717907,0.003195793,-0.571017087,0.379480958,9.349357605
3272.933313108,-0.011717907,-0.008522115,0.003195793,-0.571017087,0.379480958,9.349357605
3272.935536564,-0.007456850,-0.021305285,-0.005326321,-0.562637389,0.372298360,9.338583946
3272.937731622,-0.001065264,-0.017044229,0.000000000,-0.562637389,0.372298360,9.338583946
3272.939554846,-0.008522115,-0.011717907,-0.001065264,-0.559046090,0.365115762,9.367314339
3272.941763343,-0.004261057,-0.012783172,-0.008522115,-0.559046090,0.365115762,9.367314339
3272.943803338,0.003195793,-0.013848436,0.004261057,-0.559046090,0.365115762,9.367314339
3272.945370580,-0.005326321,-0.008522115,-0.003195793,-0.561440289,0.367509961,9.284713745
3272.947456393,-0.024501080,-0.001065264,-0.003195793,-0.561440289,0.367509961,9.284713745
3272.949831685,-0.004261057,-0.005326321,0.007456850,-0.561440289,0.367509961,9.284713745
3272.951789857,-0.006391586,-0.004261057,0.007456850,-0.561440289,0.395043284,9.321824074
3272.953821468,-0.004261057,-0.003195793,0.003195793,-0.561440289,0.395043284,9.321824074
3272.955824858,-0.012783172,0.002130529,0.003195793,-0.543483794,0.384269387,9.333795547
3272.957831459,-0.010652643,-0.004261057,0.008522115,-0.543483794,0.384269387,9.333795547
3272.959778898,-0.002130529,-0.013848436,-0.003195793,-0.566228688,0.373495460,9.296685219
3272.961576358,-0.012783172,0.000000000,-0.013848436,-0.566228688,0.373495460,9.296685219
3272.963375313,0.004261057,-0.008522115,-0.005326321,-0.566228688,0.373495460,9.296685219
3272.965389516,-0.005326321,-0.012783172,-0.007456850,-0.545877993,0.381875157,9.320627213
3272.967462977,-0.003195793,-0.003195793,0.001065264,-0.545877993,0.381875157,9.320627213
3272.969697144,-0.005326321,-0.014913701,-0.003195793,-0.545877993,0.384269387,9.363722801
3272.971639656,-0.009587379,-0.009587379,-0.009587379,-0.545877993,0.384269387,9.363722801
3272.973647957,-0.012783172,-0.017044229,0.004261057,-0.545877993,0.384269387,9.363722801
3272.975644579,-0.007456850,-0.002130529,-0.003195793,-0.561440289,0.384269387,9.308655739
3272.977633755,0.002130529,-0.015978964,-0.006391586,-0.561440289,0.384269387,9.308655739
3272.979627045,-0.005326321,-0.012783172,0.004261057,-0.560243189,0.397437483,9.313444138
3272.981548604,-0.020240022,0.007456850,0.009587379,-0.560243189,0.397437483,9.313444138
3272.983526159,-0.005326321,-0.011717907,-0.002130529,-0.560243189,0.397437483,9.313444138
3272.985621112,-0.005326321,-0.002130529,-0.002130529,-0.557848990,0.374692559,9.320627213
3272.987492009,-0.010652643,-0.001065264,0.003195793,-0.557848990,0.374692559,9.320627213
3272.989609437,-0.007456850,-0.001065264,0.001065264,-0.593762040,0.373495460,9.299078941
3272.991580225,-0.002130529,-0.008522115,0.006391586,-0.593762040,0.373495460,9.299078941
3272.993745195,-0.013848436,-0.010652643,-0.001065264,-0.593762040,0.373495460,9.299078941
3272.995734522,-0.011717907,-0.011717907,-0.004261057,-0.533906996,0.362721562,9.357737541
3272.997369061,-0.008522115,-0.018109493,0.002130529,-0.533906996,0.362721562,9.357737541
3272.999483275,-0.006391586,-0.004261057,-0.002130529,-0.533906996,0.383072257,9.369708061
3273.001498190,-0.012783172,0.004261057,0.002130529,-0.533906996,0.383072257,9.369708061
3273.003675929,-0.005326321,-0.022370551,-0.005326321,-0.533906996,0.383072257,9.369708061
3273.005534909,-0.001065264,-0.008522115,-0.008522115,-0.569819987,0.392649084,9.276334763
3273.007672326,-0.004261057,-0.006391586,0.002130529,-0.569819987,0.392649084,9.276334763
3273.009718761,-0.012783172,0.010652643,-0.006391586,-0.555454791,0.407014281,9.325415611
3273.011747292,-0.005326321,-0.005326321,-0.008522115,-0.555454791,0.407014281,9.325415611
3273.013862994,-0.007456850,-0.009587379,0.001065264,-0.555454791,0.407014281,9.325415611
3273.015858169,-0.002130529,-0.019174758,-0.010652643,-0.559046090,0.361524463,9.337387085
3273.017650346,-0.009587379,-0.014913701,-0.003195793,-0.559046090,0.361524463,9.337387085
3273.019597980,-0.007456850,-0.004261057,0.004261057,-0.572214186,0.385466486,9.306262016
3273.021726435,0.000000000,-0.009587379,0.003195793,-0.572214186,0.385466486,9.306262016
3273.023580663,-0.005326321,-0.008522115,-0.009587379,-0.572214186,0.385466486,9.306262016
3273.025899138,-0.004261057,-0.013848436,-0.003195793,-0.560243189,0.368707061,9.379284859
3273.027721235,-0.007456850,-0.010652643,0.010652643,-0.560243189,0.368707061,9.379284859
3273.029900923,0.007456850,0.003195793,0.000000000,-0.568622887,0.379480958,9.379284859
3273.031715354,-0.013848436,-0.007456850,-0.001065264,-0.568622887,0.379480958,9.379284859
3273.033915754,-0.012783172,-0.011717907,-0.006391586,-0.568622887,0.379480958,9.379284859
3273.035685702,-0.008522115,-0.003195793,-0.008522115,-0.539892495,0.389057785,9.282320023
3273.037927921,0.002130529,-0.001065264,-0.007456850,-0.539892495,0.389057785,9.282320023
3273.039739002,-0.009587379,-0.012783172,-0.008522115,-0.549469292,0.377086759,9.334992409
3273.041735094,-0.002130529,-0.012783172,-0.003195793,-0.549469292,0.377086759,9.334992409
3273.043907446,-0.009587379,-0.014913701,-0.011717907,-0.549469292,0.377086759,9.334992409
3273.045726459,-0.007456850,-0.008522115,0.000000000,-0.539892495,0.381875157,9.295488358
3273.047835099,-0.003195793,-0.013848436,-0.001065264,-0.539892495,0.381875157,9.295488358
3273.049927244,-0.007456850,-0.006391586,0.003195793,-0.549469292,0.398634583,9.311050415
3273.051715359,-0.005326321,-0.013848436,-0.012783172,-0.549469292,0.398634583,9.311050415
3273.053657138,-0.010652643,-0.012783172,-0.003195793,-0.549469292,0.398634583,9.311050415
3273.055887956,-0.007456850,-0.002130529,-0.005326321,-0.581790984,0.387860686,9.397241592
3273.057658322,-0.002130529,-0.007456850,-0.009587379,-0.581790984,0.387860686,9.397241592
3273.059646273,0.003195793,-0.018109493,-0.004261057,-0.563834488,0.375889659,9.356540680
3273.061708691,-0.017044229,-0.010652643,0.002130529,-0.563834488,0.375889659,9.356540680
3273.063719934,-0.006391586,-0.006391586,0.001065264,-0.553060591,0.368707061,9.318233490
3273.065842217,-0.003195793,-0.004261057,-0.003195793,-0.553060591,0.368707061,9.318233490
3273.067730685,-0.009587379,-0.011717907,0.005326321,-0.553060591,0.368707061,9.318233490
3273.069739291,-0.003195793,-0.012783172,-0.004261057,-0.559046090,0.369904160,9.349357605
3273.071665363,0.001065264,-0.011717907,0.000000000,-0.559046090,0.369904160,9.349357605
3273.073915779,-0.007456850,-0.013848436,-0.009587379,-0.560243189,0.387860686,9.308655739
3273.075749690,0.001065264,-0.021305285,-0.002130529,-0.560243189,0.387860686,9.308655739
3273.077734350,-0.006391586,0.005326321,-0.001065264,-0.560243189,0.387860686,9.308655739
3273.079912884,0.002130529,0.000000000,0.000000000,-0.563834488,0.404620081,9.294290543
3273.081717080,0.002130529,-0.004261057,0.003195793,-0.563834488,0.404620081,9.294290543
3273.083843482,-0.020240022,0.001065264,-0.007456850,-0.549469292,0.377086759,9.400833130
3273.085665937,-0.009587379,-0.008522115,-0.002130529,-0.549469292,0.377086759,9.400833130
3273.087626752,-0.010652643,0.002130529,0.002130529,-0.549469292,0.377086759,9.400833130
3273.089850001,-0.002130529,-0.009587379,-0.008522115,-0.548272192,0.397437483,9.318233490
3273.091670131,0.006391586,-0.004261057,0.002130529,-0.548272192,0.397437483,9.318233490
3273.093905876,-0.003195793,-0.002130529,0.001065264,-0.562637389,0.384269387,9.311050415
3273.095548247,-0.012783172,-0.013848436,0.000000000,-0.562637389,0.384269387,9.311050415
3273.097754098,-0.014913701,-0.012783172,-0.005326321,-0.562637389,0.384269387,9.311050415
3273.099525555,-0.005326321,-0.022370551,-0.008522115,-0.549469292,0.366312861,9.369708061
3273.101845222,-0.009587379,-0.005326321,0.002130529,-0.549469292,0.366312861,9.369708061
3273.103894271,0.001065264,-0.007456850,0.000000000,-0.575805485,0.372298360,9.295488358
3273.105676933,-0.004261057,-0.015978964,-0.006391586,-0.575805485,0.372298360,9.295488358
3273.107887288,-0.005326321,-0.012783172,-0.005326321,-0.575805485,0.372298360,9.295488358
3273.109733563,-0.012783172,-0.006391586,0.002130529,-0.571017087,0.389057785,9.287108421
3273.111875802,-0.006391586,-0.002130529,0.005326321,-0.571017087,0.389057785,9.287108421
3273.113523103,-0.010652643,-0.010652643,-0.009587379,-0.574608386,0.389057785,9.381679535
3273.115604178,-0.002130529,-0.017044229,-0.001065264,-0.574608386,0.389057785,9.381679535
3273.117538515,-0.005326321,-0.003195793,-0.003195793,-0.574608386,0.389057785,9.381679535
3273.119835206,-0.005326321,-0.006391586,-0.005326321,-0.572214186,0.377086759,9.325415611
3273.121672259,0.000000000,-0.012783172,0.004261057,-0.572214186,0.377086759,9.325415611
3273.123711487,-0.006391586,-0.009587379,0.005326321,-0.553060591,0.361524463,9.334992409
3273.125980557,0.003195793,-0.011717907,0.004261057,-0.553060591,0.361524463,9.334992409
3273.127968102,-0.005326321,0.004261057,0.010652643,-0.553060591,0.361524463,9.334992409
3273.129778158,0.000000000,-0.020240022,0.002130529,-0.549469292,0.385466486,9.396044731
3273.131636714,-0.003195793,-0.009587379,-0.003195793,-0.549469292,0.385466486,9.396044731
3273.133543559,-0.011717907,-0.003195793,0.005326321,-0.524330199,0.390254885,9.317035675
3273.135627165,-0.007456850,-0.005326321,0.001065264,-0.524330199,0.390254885,9.317035675
3273.137557700,0.008522115,-0.020240022,-0.001065264,-0.524330199,0.390254885,9.317035675
3273.139623066,-0.003195793,-0.012783172,0.000000000,-0.542286694,0.367509961,9.305065155
3273.141596611,-0.003195793,-0.021305285,-0.004261057,-0.542286694,0.367509961,9.305065155
3273.143715520,-0.019174758,-0.004261057,-0.002130529,-0.580593884,0.379480958,9.329007149
3273.145880567,-0.006391586,-0.010652643,-0.002130529,-0.580593884,0.379480958,9.329007149
3273.147786436,-0.007456850,-0.017044229,-0.009587379,-0.580593884,0.379480958,9.329007149
3273.149716861,-0.006391586,-0.022370551,-0.007456850,-0.538695395,0.395043284,9.327810287
3273.151721281,-0.008522115,0.003195793,0.001065264,-0.538695395,0.395043284,9.327810287
3273.153585233,-0.003195793,-0.018109493,0.000000000,-0.577002585,0.380678058,9.354146004
3273.155896186,0.003195793,-0.004261057,-0.004261057,-0.577002585,0.380678058,9.354146004
3273.157906783,-0.012783172,-0.008522115,0.002130529,-0.577002585,0.380678058,9.354146004
3273.159755741,-0.007456850,-0.020240022,0.003195793,-0.556651890,0.389057785,9.361329079
3273.161906826,-0.009587379,-0.012783172,-0.007456850,-0.556651890,0.389057785,9.361329079
3273.163941462,-0.002130529,-0.018109493,-0.001065264,-0.547075093,0.359130263,9.289502144
3273.165795461,-0.010652643,-0.005326321,0.000000000,-0.547075093,0.359130263,9.289502144
3273.167790058,-0.002130529,-0.005326321,0.006391586,-0.547075093,0.359130263,9.289502144
3273.169723630,0.000000000,-0.009587379,-0.011717907,-0.556651890,0.384269387,9.357737541
3273.171615381,-0.008522115,-0.011717907,-0.013848436,-0.556651890,0.384269387,9.357737541
3273.173932070,0.005326321,-0.017044229,-0.009587379,-0.565031588,0.360327363,9.330204010
3273.175748013,-0.004261057,-0.009587379,0.002130529,-0.565031588,0.360327363,9.330204010
3273.177705685,0.000000000,-0.015978964,-0.006391586,-0.565031588,0.360327363,9.330204010
3273.179828518,0.006391586,-0.017044229,-0.007456850,-0.561440289,0.391451985,9.311050415
3273.181931931,0.003195793,-0.002130529,-0.005326321,-0.561440289,0.391451985,9.311050415
3273.183897659,-0.009587379,-0.023435814,-0.001065264,-0.565031588,0.378283858,9.363722801
3273.185912411,0.004261057,-0.012783172,-0.009587379,-0.565031588,0.378283858,9.363722801
3273.187722463,-0.007456850,-0.005326321,0.001065264,-0.565031588,0.378283858,9.363722801
3273.189701159,0.005326321,-0.010652643,-0.008522115,-0.543483794,0.378283858,9.306262016
3273.191731604,0.003195793,-0.007456850,-0.009587379,-0.543483794,0.378283858,9.306262016
3273.193739456,-0.010652643,-0.007456850,0.000000000,-0.539892495,0.387860686,9.275136948
3273.195945305,0.001065264,-0.009587379,0.005326321,-0.539892495,0.387860686,9.275136948
3273.197554102,0.000000000,-0.003195793,-0.007456850,-0.539892495,0.387860686,9.275136948
3273.199741368,-0.004261057,-0.010652643,-0.004261057,-0.551863492,0.390254885,9.379284859
3273.201755063,-0.001065264,-0.019174758,-0.010652643,-0.551863492,0.390254885,9.379284859
3273.203466208,0.001065264,-0.017044229,-0.003195793,-0.569819987,0.342370838,9.319430351
3273.205485215,-0.014913701,0.000000000,-0.002130529,-0.569819987,0.342370838,9.319430351
3273.207842355,-0.010652643,-0.015978964,-0.003195793,-0.569819987,0.342370838,9.319430351
3273.209645391,-0.011717907,-0.007456850,-0.001065264,-0.554257691,0.396240383,9.312247276
3273.211772706,0.000000000,-0.007456850,0.004261057,-0.554257691,0.396240383,9.312247276
3273.213965936,0.003195793,-0.003195793,0.003195793,-0.544680893,0.381875157,9.411606789
3273.215825680,-0.012783172,-0.002130529,0.001065264,-0.544680893,0.381875157,9.411606789
3273.217771199,-0.004261057,-0.015978964,0.000000000,-0.550666392,0.377086759,9.331400871
3273.219792719,-0.012783172,-0.015978964,-0.001065264,-0.550666392,0.377086759,9.331400871
3273.221729460,-0.013848436,-0.015978964,0.002130529,-0.550666392,0.377086759,9.331400871
3273.223715453,-0.004261057,-0.006391586,-0.003195793,-0.573411286,0.367509961,9.324218750
3273.225897980,-0.012783172,-0.011717907,-0.004261057,-0.573411286,0.367509961,9.324218750
3273.227704891,-0.011717907,-0.012783172,-0.013848436,-0.578199685,0.389057785,9.337387085
3273.229706574,-0.012783172,-0.011717907,-0.003195793,-0.578199685,0.389057785,9.337387085
3273.231718386,-0.011717907,-0.008522115,-0.003195793,-0.578199685,0.389057785,9.337387085
3273.233739660,0.000000000,-0.003195793,0.005326321,-0.575805485,0.399831682,9.309853554
3273.235729908,-0.022370551,-0.012783172,-0.002130529,-0.575805485,0.399831682,9.309853554
3273.237933455,-0.002130529,-0.005326321,-0.008522115,-0.574608386,0.386663586,9.324218750
3273.239700925,0.001065264,-0.004261057,-0.011717907,-0.574608386,0.386663586,9.324218750
3273.241817249,-0.007456850,-0.015978964,-0.001065264,-0.574608386,0.386663586,9.324218750
3273.243699753,0.000000000,-0.018109493,-0.005326321,-0.569819987,0.392649084,9.397241592
3273.245848697,-0.001065264,-0.007456850,-0.011717907,-0.569819987,0.392649084,9.397241592
3273.247674723,-0.002130529,-0.011717907,0.002130529,-0.555454791,0.396240383,9.313444138
3273.249673291,-0.008522115,-0.006391586,-0.002130529,-0.555454791,0.396240383,9.313444138
3273.251715572,-0.002130529,-0.010652643,-0.001065264,-0.555454791,0.396240383,9.313444138
3273.253730199,-0.007456850,-0.007456850,-0.001065264,-0.548272192,0.371101260,9.326612473
3273.255687621,-0.009587379,-0.002130529,0.003195793,-0.548272192,0.371101260,9.326612473
3273.257632727,-0.003195793,-0.010652643,-0.003195793,-0.565031588,0.365115762,9.332598686
3273.259877769,-0.009587379,-0.017044229,0.002130529,-0.565031588,0.365115762,9.332598686
3273.261628192,-0.008522115,-0.006391586,0.004261057,-0.565031588,0.365115762,9.332598686
3273.263877080,0.004261057,-0.003195793,-0.005326321,-0.565031588,0.378283858,9.302670479
3273.265726496,-0.006391586,-0.019174758,0.001065264,-0.565031588,0.378283858,9.302670479
3273.267772011,-0.008522115,-0.003195793,0.012783172,-0.557848990,0.393846184,9.362525940
3273.269779797,-0.011717907,-0.007456850,0.001065264,-0.557848990,0.393846184,9.362525940
3273.271757111,-0.010652643,-0.013848436,-0.007456850,-0.557848990,0.393846184,9.362525940
3273.274130886,-0.006391586,-0.006391586,-0.005326321,-0.573411286,0.396240383,9.352949142
3273.275554048,-0.012783172,-0.014913701,0.003195793,-0.573411286,0.396240383,9.352949142
3273.277868941,-0.009587379,-0.014913701,-0.009587379,-0.568622887,0.378283858,9.284713745
3273.279471021,0.002130529,-0.022370551,0.000000000,-0.568622887,0.378283858,9.284713745
3273.281720277,-0.007456850,0.015978964,0.000000000,-0.568622887,0.378283858,9.284713745
3273.283701531,0.001065264,-0.009587379,-0.007456850,-0.532709897,0.401028782,9.329007149
3273.285835606,-0.003195793,-0.004261057,0.003195793,-0.532709897,0.401028782,9.329007149
3273.287998076,-0.008522115,0.002130529,-0.005326321,-0.536301196,0.357933164,9.333795547
3273.290004260,-0.015978964,-0.019174758,0.000000000,-0.536301196,0.357933164,9.333795547
3273.291967226,0.005326321,-0.002130529,-0.005326321,-0.536301196,0.357933164,9.333795547
3273.293765653,-0.021305285,-0.003195793,-0.002130529,-0.565031588,0.372298360,9.291896820
3273.295895764,-0.002130529,-0.019174758,-0.004261057,-0.565031588,0.372298360,9.291896820
3273.297709530,-0.017044229,-0.003195793,-0.004261057,-0.548272192,0.390254885,9.324218750
3273.299847406,-0.013848436,-0.003195793,0.008522115,-0.548272192,0.390254885,9.324218750
3273.301882033,-0.009587379,-0.006391586,-0.002130529,-0.548272192,0.390254885,9.324218750
3273.303595935,0.005326321,-0.021305285,-0.004261057,-0.574608386,0.374692559,9.363722801
3273.305828967,-0.009587379,-0.002130529,0.004261057,-0.574608386,0.374692559,9.363722801
3273.307924639,-0.011717907,-0.018109493,0.000000000,-0.560243189,0.390254885,9.323021889
3273.309927666,-0.004261057,-0.019174758,-0.007456850,-0.560243189,0.390254885,9.323021889
3273.311689003,0.003195793,-0.014913701,-0.004261057,-0.560243189,0.390254885,9.323021889
3273.313931051,0.005326321,-0.026631609,0.009587379,-0.555454791,0.372298360,9.356540680
3273.315679301,0.005326321,0.001065264,0.000000000,-0.555454791,0.372298360,9.356540680
3273.317897749,-0.001065264,-0.019174758,-0.008522115,-0.553060591,0.359130263,9.339780807
3273.319890888,-0.004261057,-0.006391586,0.004261057,-0.553060591,0.359130263,9.339780807
3273.321614540,-0.002130529,-0.005326321,-0.002130529,-0.553060591,0.359130263,9.339780807
3273.323633892,-0.001065264,-0.013848436,0.005326321,-0.555454791,0.385466486,9.289502144
3273.325541229,-0.009587379,-0.002130529,-0.002130529,-0.555454791,0.385466486,9.289502144
3273.327647198,0.005326321,-0.008522115,-0.007456850,-0.560243189,0.402225882,9.358934402
3273.329554672,-0.004261057,-0.020240022,-0.005326321,-0.560243189,0.402225882,9.358934402
3273.331672514,-0.006391586,-0.011717907,-0.008522115,-0.560243189,0.402225882,9.358934402
3273.333631713,0.000000000,-0.010652643,0.001065264,-0.562637389,0.383072257,9.332598686
3273.335757829,-0.008522115,-0.009587379,-0.002130529,-0.562637389,0.383072257,9.332598686
3273.337671557,-0.003195793,-0.018109493,0.007456850,-0.554257691,0.378283858,9.314641953
3273.339896120,-0.009587379,-0.001065264,-0.002130529,-0.554257691,0.378283858,9.314641953
3273.341543033,0.000000000,-0.015978964,0.002130529,-0.554257691,0.378283858,9.314641953
3273.343886355,0.007456850,-0.012783172,-0.002130529,-0.563834488,0.351947635,9.348160744
3273.345586536,-0.010652643,-0.013848436,0.002130529,-0.563834488,0.351947635,9.348160744
3273.347754265,0.003195793,-0.013848436,-0.008522115,-0.590170741,0.367509961,9.297882080
3273.349613660,-0.005326321,0.001065264,-0.007456850,-0.590170741,0.367509961,9.297882080
3273.351750248,0.001065264,-0.006391586,-0.007456850,-0.590170741,0.367509961,9.297882080
3273.353741668,-0.009587379,-0.007456850,-0.004261057,-0.574608386,0.405817181,9.279925346
3273.355893991,-0.001065264,-0.007456850,0.007456850,-0.574608386,0.405817181,9.279925346
3273.357631883,-0.002130529,-0.015978964,-0.005326321,-0.555454791,0.380678058,9.384073257
3273.359875396,-0.005326321,-0.003195793,0.003195793,-0.555454791,0.380678058,9.384073257
3273.361594788,0.002130529,-0.001065264,0.000000000,-0.555454791,0.380678058,9.384073257
3273.363930212,-0.012783172,-0.015978964,0.008522115,-0.545877993,0.397437483,9.315838814
3273.365679228,0.003195793,-0.012783172,-0.014913701,-0.545877993,0.397437483,9.315838814
3273.367725038,-0.002130529,-0.014913701,-0.004261057,-0.562637389,0.405817181,9.336189270
3273.369727117,-0.004261057,-0.006391586,-0.002130529,-0.562637389,0.405817181,9.336189270
3273.371723742,-0.005326321,-0.010652643,-0.002130529,-0.560243189,0.390254885,9.376891136
3273.373867437,-0.002130529,-0.007456850,-0.001065264,-0.560243189,0.390254885,9.376891136
3273.375909007,0.000000000,-0.009587379,0.000000000,-0.560243189,0.390254885,9.376891136
3273.377631664,-0.001065264,-0.012783172,0.001065264,-0.560243189,0.355538964,9.285911560
3273.379515663,-0.003195793,-0.009587379,0.003195793,-0.560243189,0.355538964,9.285911560
3273.381882441,-0.003195793,-0.018109493,-0.011717907,-0.561440289,0.379480958,9.299078941
3273.383673056,-0.008522115,-0.003195793,-0.008522115,-0.561440289,0.379480958,9.299078941
3273.385663268,0.004261057,-0.003195793,0.005326321,-0.561440289,0.379480958,9.299078941
3273.387939163,0.004261057,-0.014913701,0.002130529,-0.567425787,0.378283858,9.375694275
3273.389718741,-0.011717907,-0.003195793,-0.008522115,-0.567425787,0.378283858,9.375694275
3273.391757451,-0.008522115,-0.004261057,0.002130529,-0.559046090,0.396240383,9.326612473
3273.393938953,-0.012783172,-0.007456850,-0.006391586,-0.559046090,0.396240383,9.326612473
3273.395750983,-0.001065264,-0.013848436,0.005326321,-0.559046090,0.396240383,9.326612473
3273.397712123,-0.010652643,-0.012783172,0.003195793,-0.562637389,0.395043284,9.338583946
3273.399568344,-0.004261057,-0.017044229,0.003195793,-0.562637389,0.395043284,9.338583946
3273.401527960,0.001065264,-0.006391586,-0.011717907,-0.550666392,0.381875157,9.331400871
3273.403779889,-0.008522115,0.001065264,-0.003195793,-0.550666392,0.381875157,9.331400871
3273.405924397,-0.017044229,-0.007456850,-0.004261057,-0.550666392,0.381875157,9.331400871
3273.407744681,0.000000000,-0.006391586,-0.019174758,-0.573411286,0.377086759,9.289502144
3273.409937600,-0.007456850,-0.012783172,-0.009587379,-0.573411286,0.377086759,9.289502144
3273.411730258,-0.008522115,0.013848436,0.003195793,-0.524330199,0.385466486,9.317035675
3273.413758901,-0.004261057,-0.008522115,-0.007456850,-0.524330199,0.385466486,9.317035675
3273.415777435,0.000000000,-0.008522115,-0.008522115,-0.524330199,0.385466486,9.317035675
3273.417665997,0.002130529,-0.008522115,0.003195793,-0.541089594,0.369904160,9.340977669
3273.419908825,-0.020240022,0.004261057,-0.003195793,-0.541089594,0.369904160,9.340977669
3273.421703840,-0.007456850,0.005326321,0.004261057,-0.574608386,0.379480958,9.319430351
3273.423911520,0.006391586,-0.008522115,-0.005326321,-0.574608386,0.379480958,9.319430351
3273.425677164,-0.003195793,0.001065264,0.007456850,-0.574608386,0.379480958,9.319430351
3273.427695166,-0.006391586,-0.010652643,0.007456850,-0.573411286,0.390254885,9.360131264
3273.429696126,-0.020240022,-0.005326321,-0.001065264,-0.573411286,0.390254885,9.360131264
3273.431646928,-0.002130529,-0.012783172,-0.008522115,-0.585382342,0.380678058,9.367314339
3273.433687196,-0.003195793,-0.006391586,0.000000000,-0.585382342,0.380678058,9.367314339
3273.435634518,-0.005326321,-0.004261057,0.002130529,-0.585382342,0.380678058,9.367314339
3273.437961517,-0.006391586,-0.008522115,-0.003195793,-0.554257691,0.361524463,9.314641953
3273.439832276,-0.005326321,-0.012783172,-0.008522115,-0.554257691,0.361524463,9.314641953
3273.441950637,-0.011717907,-0.013848436,0.000000000,-0.559046090,0.380678058,9.403226852
3273.443776012,0.007456850,-0.018109493,-0.007456850,-0.559046090,0.380678058,9.403226852
3273.445716066,-0.009587379,-0.018109493,-0.015978964,-0.559046090,0.380678058,9.403226852
3273.447696883,0.003195793,-0.005326321,-0.008522115,-0.554257691,0.378283858,9.313444138
3273.449490669,-0.011717907,-0.018109493,0.000000000,-0.554257691,0.378283858,9.313444138
3273.451660655,-0.003195793,-0.018109493,-0.005326321,-0.568622887,0.384269387,9.293093681
3273.453689720,-0.008522115,-0.001065264,-0.003195793,-0.568622887,0.384269387,9.293093681
3273.455647047,-0.004261057,-0.003195793,-0.005326321,-0.568622887,0.384269387,9.293093681
3273.457936364,-0.004261057,-0.021305285,-0.001065264,-0.554257691,0.366312861,9.370905876
3273.459726330,0.003195793,-0.009587379,-0.007456850,-0.554257691,0.366312861,9.370905876
3273.461651353,0.003195793,-0.021305285,-0.003195793,-0.551863492,0.379480958,9.354146004
3273.463941378,-0.010652643,-0.003195793,-0.005326321,-0.551863492,0.379480958,9.354146004
3273.465636628,-0.012783172,-0.019174758,0.000000000,-0.551863492,0.379480958,9.354146004
3273.467719049,-0.006391586,0.001065264,-0.003195793,-0.547075093,0.378283858,9.305065155
3273.469671853,-0.010652643,-0.018109493,-0.005326321,-0.547075093,0.378283858,9.305065155
3273.471778187,-0.003195793,0.001065264,-0.006391586,-0.572214186,0.387860686,9.362525940
3273.473913762,-0.003195793,-0.018109493,-0.004261057,-0.572214186,0.387860686,9.362525940
3273.475892466,-0.005326321,-0.005326321,-0.002130529,-0.572214186,0.387860686,9.362525940
3273.477678046,-0.010652643,-0.006391586,-0.001065264,-0.563834488,0.389057785,9.297882080
3273.480016009,-0.001065264,-0.010652643,0.006391586,-0.563834488,0.389057785,9.297882080
3273.481739583,-0.012783172,0.003195793,-0.007456850,-0.572214186,0.392649084,9.315838814
3273.483949263,-0.015978964,-0.004261057,0.000000000,-0.572214186,0.392649084,9.315838814
3273.485762422,-0.005326321,0.000000000,-0.001065264,-0.572214186,0.392649084,9.315838814
3273.487963412,-0.003195793,-0.023435814,-0.002130529,-0.549469292,0.392649084,9.412803650
3273.489897665,-0.004261057,-0.003195793,-0.003195793,-0.549469292,0.392649084,9.412803650
3273.491898913,-0.002130529,-0.015978964,-0.001065264,-0.542286694,0.390254885,9.311050415
3273.493886814,0.003195793,-0.014913701,-0.004261057,-0.542286694,0.390254885,9.311050415
3273.495870882,-0.005326321,-0.001065264,0.002130529,-0.542286694,0.390254885,9.311050415
3273.497854827,-0.003195793,-0.005326321,-0.003195793,-0.541089594,0.383072257,9.303867340
3273.500134751,-0.008522115,-0.010652643,-0.010652643,-0.541089594,0.383072257,9.303867340
3273.501744502,-0.006391586,-0.017044229,0.004261057,-0.563834488,0.375889659,9.361329079
3273.503637414,-0.007456850,-0.004261057,0.001065264,-0.563834488,0.375889659,9.361329079
3273.505761933,0.002130529,-0.014913701,0.003195793,-0.563834488,0.375889659,9.361329079
3273.507792140,-0.006391586,-0.009587379,-0.006391586,-0.535104096,0.384269387,9.296685219
3273.509919178,0.001065264,-0.017044229,0.003195793,-0.535104096,0.384269387,9.296685219
3273.511928212,-0.017044229,-0.005326321,-0.001065264,-0.568622887,0.396240383,9.329007149
3273.513935159,-0.008522115,-0.004261057,0.000000000,-0.568622887,0.396240383,9.329007149
3273.515917807,-0.022370551,0.000000000,0.001065264,-0.537498295,0.385466486,9.380482674
3273.517909867,-0.003195793,-0.017044229,-0.006391586,-0.537498295,0.385466486,9.380482674
3273.519736622,-0.003195793,-0.009587379,0.002130529,-0.537498295,0.385466486,9.380482674
3273.521736582,-0.007456850,-0.012783172,-0.005326321,-0.531512797,0.381875157,9.329007149
3273.523930704,-0.010652643,-0.012783172,-0.009587379,-0.531512797,0.381875157,9.329007149
3273.525948217,0.006391586,-0.008522115,-0.005326321,-0.568622887,0.389057785,9.340977669
3273.527944157,-0.012783172,-0.010652643,-0.003195793,-0.568622887,0.389057785,9.340977669
3273.529910400,-0.015978964,-0.009587379,0.000000000,-0.568622887,0.389057785,9.340977669
3273.531927694,-0.009587379,-0.007456850,-0.002130529,-0.555454791,0.374692559,9.330204010
3273.533912723,-0.009587379,-0.013848436,0.003195793,-0.555454791,0.374692559,9.330204010
3273.535910929,-0.011717907,-0.001065264,0.012783172,-0.541089594,0.379480958,9.295488358
3273.537742346,-0.022370551,-0.008522115,-0.009587379,-0.541089594,0.379480958,9.295488358
3273.539760494,0.001065264,-0.011717907,-0.006391586,-0.541089594,0.379480958,9.295488358
3273.541858860,-0.008522115,-0.005326321,-0.001065264,-0.559046090,0.381875157,9.344569206
3273.543949206,-0.002130529,-0.010652643,0.010652643,-0.559046090,0.381875157,9.344569206
3273.545962818,-0.003195793,-0.004261057,-0.002130529,-0.561440289,0.347159237,9.380482674
3273.547980086,-0.009587379,-0.009587379,0.004261057,-0.561440289,0.347159237,9.380482674
3273.550049122,-0.004261057,-0.010652643,-0.001065264,-0.561440289,0.347159237,9.380482674
3273.551909427,-0.017044229,-0.018109493,0.001065264,-0.553060591,0.375889659,9.311050415
3273.553670984,0.002130529,-0.008522115,-0.007456850,-0.553060591,0.375889659,9.311050415
3273.555729893,0.000000000,-0.010652643,-0.006391586,-0.557848990,0.408211380,9.344569206
3273.557738973,-0.002130529,-0.009587379,-0.006391586,-0.557848990,0.408211380,9.344569206
3273.559750297,-0.008522115,-0.001065264,-0.004261057,-0.557848990,0.408211380,9.344569206
3273.561744745,-0.002130529,-0.012783172,-0.010652643,-0.561440289,0.397437483,9.362525940
3273.563962488,-0.008522115,0.005326321,0.001065264,-0.561440289,0.397437483,9.362525940
3273.565829494,-0.003195793,-0.001065264,-0.002130529,-0.559046090,0.386663586,9.283516884
3273.567844127,-0.010652643,-0.017044229,-0.009587379,-0.559046090,0.386663586,9.283516884
3273.569967467,-0.005326321,-0.003195793,0.001065264,-0.559046090,0.386663586,9.283516884
3273.571645841,-0.008522115,-0.013848436,0.002130529,-0.569819987,0.390254885,9.339780807
3273.573705090,0.004261057,-0.010652643,-0.006391586,-0.569819987,0.390254885,9.339780807
3273.575664230,-0.002130529,-0.020240022,-0.007456850,-0.549469292,0.368707061,9.360131264
3273.577896823,-0.012783172,-0.003195793,0.002130529,-0.549469292,0.368707061,9.360131264
3273.579759067,0.003195793,-0.014913701,-0.002130529,-0.549469292,0.368707061,9.360131264
3273.581777102,0.007456850,-0.015978964,0.002130529,-0.559046090,0.381875157,9.314641953
3273.583828162,0.012783172,-0.003195793,-0.004261057,-0.559046090,0.381875157,9.314641953
3273.585779805,-0.003195793,-0.007456850,-0.006391586,-0.535104096,0.362721562,9.378087997
3273.587772713,0.000000000,-0.013848436,0.000000000,-0.535104096,0.362721562,9.378087997
3273.589919158,0.001065264,-0.013848436,-0.001065264,-0.535104096,0.362721562,9.378087997
3273.591735736,-0.013848436,-0.010652643,0.004261057,-0.565031588,0.355538964,9.369708061
3273.593712656,0.003195793,-0.012783172,-0.009587379,-0.565031588,0.355538964,9.369708061
3273.595551514,0.001065264,-0.001065264,0.005326321,-0.573411286,0.359130263,9.308655739
3273.597508924,-0.008522115,-0.010652643,0.005326321,-0.573411286,0.359130263,9.308655739
3273.599776388,-0.004261057,-0.007456850,0.002130529,-0.573411286,0.359130263,9.308655739
3273.601598216,-0.003195793,-0.013848436,-0.005326321,-0.560243189,0.389057785,9.339780807
3273.603441476,-0.006391586,-0.022370551,-0.005326321,-0.560243189,0.389057785,9.339780807
3273.605754641,-0.010652643,-0.013848436,-0.002130529,-0.560243189,0.379480958,9.309853554
3273.607598552,-0.004261057,-0.005326321,-0.013848436,-0.560243189,0.379480958,9.309853554
3273.609709684,-0.010652643,-0.005326321,-0.003195793,-0.560243189,0.379480958,9.309853554
3273.611976533,-0.014913701,-0.005326321,0.001065264,-0.537498295,0.373495460,9.293093681
3273.613894380,0.003195793,-0.008522115,-0.006391586,-0.537498295,0.373495460,9.293093681
3273.615903883,-0.008522115,-0.019174758,0.002130529,-0.537498295,0.372298360,9.388861656
3273.617738523,-0.007456850,-0.011717907,-0.012783172,-0.537498295,0.372298360,9.388861656
3273.619868712,-0.006391586,-0.017044229,-0.012783172,-0.537498295,0.372298360,9.388861656
3273.621530807,-0.007456850,-0.005326321,-0.009587379,-0.545877993,0.399831682,9.323021889
3273.623911941,-0.010652643,-0.018109493,0.002130529,-0.545877993,0.399831682,9.323021889
3273.625696474,-0.006391586,-0.006391586,-0.001065264,-0.538695395,0.387860686,9.299078941
3273.627713611,-0.010652643,-0.022370551,0.000000000,-0.538695395,0.387860686,9.299078941
3273.629767712,-0.009587379,-0.010652643,-0.008522115,-0.538695395,0.387860686,9.299078941
3273.631763044,-0.012783172,0.000000000,0.003195793,-0.548272192,0.390254885,9.340977669
3273.633769588,-0.010652643,-0.012783172,0.002130529,-0.548272192,0.390254885,9.340977669
3273.635755997,-0.006391586,-0.013848436,-0.013848436,-0.547075093,0.385466486,9.290699959
3273.637857180,-0.005326321,-0.013848436,-0.010652643,-0.547075093,0.385466486,9.290699959
3273.639797903,0.010652643,-0.017044229,-0.001065264,-0.547075093,0.385466486,9.290699959
3273.641826578,-0.006391586,-0.005326321,-0.006391586,-0.559046090,0.399831682,9.317035675
3273.643806075,-0.001065264,0.002130529,0.007456850,-0.559046090,0.399831682,9.317035675
3273.645791954,-0.009587379,-0.011717907,-0.012783172,-0.567425787,0.385466486,9.381679535
3273.647809253,-0.017044229,0.005326321,0.001065264,-0.567425787,0.385466486,9.381679535
3273.650140483,-0.009587379,-0.008522115,0.004261057,-0.567425787,0.385466486,9.381679535
3273.651726525,-0.006391586,-0.004261057,-0.004261057,-0.559046090,0.391451985,9.305065155
3273.653934150,-0.005326321,-0.012783172,-0.003195793,-0.559046090,0.391451985,9.305065155
3273.655774415,-0.007456850,-0.014913701,-0.004261057,-0.567425787,0.380678058,9.330204010
3273.657681936,-0.007456850,-0.007456850,0.011717907,-0.567425787,0.380678058,9.330204010
3273.659931472,0.002130529,-0.011717907,-0.005326321,-0.567425787,0.380678058,9.330204010
3273.661747600,-0.009587379,-0.005326321,0.005326321,-0.568622887,0.379480958,9.360131264
3273.663880524,-0.004261057,-0.017044229,-0.011717907,-0.568622887,0.379480958,9.360131264
3273.665594045,0.000000000,-0.009587379,-0.009587379,-0.567425787,0.396240383,9.303867340
3273.667899307,0.001065264,-0.009587379,-0.001065264,-0.567425787,0.396240383,9.303867340
3273.669684343,-0.009587379,-0.009587379,0.001065264,-0.555454791,0.373495460,9.338583946
3273.671740253,-0.005326321,-0.010652643,-0.003195793,-0.555454791,0.373495460,9.338583946
3273.673790296,-0.006391586,-0.012783172,-0.004261057,-0.555454791,0.373495460,9.338583946
3273.675793325,0.005326321,-0.009587379,-0.002130529,-0.533906996,0.371101260,9.392453194
3273.677961357,-0.001065264,-0.005326321,-0.002130529,-0.533906996,0.371101260,9.392453194
3273.679752883,-0.002130529,-0.005326321,0.005326321,-0.553060591,0.369904160,9.307458878
3273.681743260,-0.001065264,-0.007456850,0.000000000,-0.553060591,0.369904160,9.307458878
3273.683786874,-0.003195793,-0.004261057,-0.002130529,-0.553060591,0.369904160,9.307458878
3273.685923556,-0.013848436,-0.010652643,0.000000000,-0.554257691,0.409408480,9.336189270
3273.687767650,-0.005326321,-0.008522115,-0.001065264,-0.554257691,0.409408480,9.336189270
3273.689919599,-0.001065264,-0.012783172,-0.002130529,-0.554257691,0.389057785,9.330204010
3273.691763033,0.005326321,0.001065264,-0.004261057,-0.554257691,0.389057785,9.330204010
3273.693708555,-0.007456850,-0.017044229,0.002130529,-0.554257691,0.389057785,9.330204010
3273.695908977,0.001065264,-0.006391586,0.000000000,-0.571017087,0.386663586,9.293093681
3273.697799647,-0.004261057,-0.003195793,0.000000000,-0.571017087,0.386663586,9.293093681
3273.699814578,-0.005326321,-0.007456850,-0.007456850,-0.575805485,0.401028782,9.369708061
3273.701642354,0.003195793,-0.009587379,-0.008522115,-0.575805485,0.401028782,9.369708061
3273.703613623,-0.007456850,-0.009587379,-0.003195793,-0.575805485,0.401028782,9.369708061
3273.705711478,-0.002130529,-0.011717907,-0.005326321,-0.561440289,0.384269387,9.329007149
3273.707907115,-0.021305285,-0.004261057,0.010652643,-0.561440289,0.384269387,9.329007149
3273.709707914,0.000000000,-0.004261057,-0.001065264,-0.535104096,0.369904160,9.295488358
3273.711961838,-0.005326321,0.000000000,0.001065264,-0.535104096,0.369904160,9.295488358
3273.713749439,0.001065264,-0.015978964,0.003195793,-0.535104096,0.369904160,9.295488358
3273.715760281,-0.012783172,-0.005326321,0.004261057,-0.537498295,0.392649084,9.393650055
3273.717774512,-0.009587379,-0.005326321,-0.004261057,-0.537498295,0.392649084,9.393650055
3273.719797903,0.001065264,-0.020240022,0.004261057,-0.553060591,0.359130263,9.287108421
3273.721682814,-0.008522115,-0.011717907,-0.008522115,-0.553060591,0.359130263,9.287108421
3273.723730801,0.001065264,-0.017044229,-0.013848436,-0.553060591,0.359130263,9.287108421
3273.725938400,-0.010652643,-0.004261057,-0.019174758,-0.548272192,0.384269387,9.279925346
3273.727716521,-0.005326321,-0.009587379,0.006391586,-0.548272192,0.384269387,9.279925346
3273.729738815,-0.001065264,-0.017044229,-0.011717907,-0.541089594,0.392649084,9.394847870
3273.731775067,-0.002130529,-0.008522115,-0.007456850,-0.541089594,0.392649084,9.394847870
3273.733774263,0.002130529,-0.006391586,-0.012783172,-0.541089594,0.392649084,9.394847870
3273.735761052,0.003195793,-0.019174758,-0.005326321,-0.551863492,0.395043284,9.356540680
3273.737936439,-0.002130529,-0.009587379,-0.012783172,-0.551863492,0.395043284,9.356540680
3273.739911587,0.004261057,-0.004261057,-0.006391586,-0.575805485,0.371101260,9.312247276
3273.741762608,0.000000000,-0.018109493,-0.005326321,-0.575805485,0.371101260,9.312247276
3273.743757907,-0.020240022,0.005326321,0.005326321,-0.575805485,0.371101260,9.312247276
3273.745843931,-0.003195793,-0.007456850,-0.004261057,-0.562637389,0.367509961,9.373299599
3273.747981475,0.002130529,-0.005326321,0.002130529,-0.562637389,0.367509961,9.373299599
3273.749500313,-0.009587379,-0.011717907,0.002130529,-0.556651890,0.359130263,9.308655739
3273.751573363,-0.005326321,-0.005326321,-0.003195793,-0.556651890,0.359130263,9.308655739
3273.753596025,-0.009587379,0.002130529,-0.004261057,-0.556651890,0.359130263,9.308655739
3273.755433091,-0.026631609,-0.010652643,0.003195793,-0.556651890,0.375889659,9.305065155
3273.757585010,0.010652643,-0.012783172,0.003195793,-0.556651890,0.375889659,9.305065155
3273.759532751,-0.006391586,-0.009587379,-0.012783172,-0.585382342,0.392649084,9.397241592
3273.761604830,-0.010652643,-0.017044229,0.000000000,-0.585382342,0.392649084,9.397241592
3273.763605095,-0.006391586,-0.002130529,0.000000000,-0.585382342,0.392649084,9.397241592
3273.765468229,0.002130529,-0.020240022,0.000000000,-0.548272192,0.381875157,9.319430351
3273.767703801,0.002130529,-0.014913701,-0.007456850,-0.548272192,0.381875157,9.319430351
3273.769901058,-0.007456850,-0.012783172,-0.005326321,-0.554257691,0.402225882,9.315838814
3273.772037105,-0.005326321,-0.014913701,0.001065264,-0.554257691,0.402225882,9.315838814
3273.774017161,-0.011717907,-0.013848436,-0.004261057,-0.554257691,0.402225882,9.315838814
3273.775936040,-0.002130529,-0.001065264,-0.004261057,-0.541089594,0.404620081,9.384073257
3273.777762019,-0.015978964,-0.008522115,0.005326321,-0.541089594,0.404620081,9.384073257
3273.779894599,-0.005326321,-0.013848436,-0.009587379,-0.557848990,0.396240383,9.326612473
3273.781696332,-0.018109493,-0.004261057,0.000000000,-0.557848990,0.396240383,9.326612473
3273.783754069,-0.006391586,-0.001065264,0.005326321,-0.557848990,0.396240383,9.326612473
3273.785717070,-0.009587379,-0.001065264,0.000000000,-0.557848990,0.396240383,9.306262016
3273.787750901,-0.010652643,-0.012783172,0.002130529,-0.557848990,0.396240383,9.306262016
3273.789477611,-0.015978964,-0.013848436,-0.009587379,-0.545877993,0.357933164,9.354146004
3273.791892630,-0.003195793,-0.013848436,-0.004261057,-0.545877993,0.357933164,9.354146004
3273.793802295,-0.003195793,-0.007456850,0.000000000,-0.545877993,0.357933164,9.354146004
3273.795782854,-0.003195793,0.004261057,-0.008522115,-0.569819987,0.408211380,9.272743225
3273.797789849,-0.003195793,-0.003195793,-0.002130529,-0.569819987,0.408211380,9.272743225
3273.799664415,0.003195793,-0.018109493,-0.011717907,-0.569819987,0.408211380,9.272743225
3273.801797170,0.002130529,-0.012783172,0.006391586,-0.562637389,0.383072257,9.358934402
3273.803777462,-0.010652643,-0.005326321,-0.011717907,-0.562637389,0.383072257,9.358934402
3273.805737571,-0.002130529,-0.002130529,0.000000000,-0.553060591,0.384269387,9.351752281
3273.807712666,0.001065264,-0.015978964,0.002130529,-0.553060591,0.384269387,9.351752281
3273.809796023,0.007456850,-0.024501080,-0.014913701,-0.559046090,0.386663586,9.302670479
3273.811979117,-0.001065264,-0.009587379,-0.008522115,-0.559046090,0.386663586,9.302670479
3273.813961365,-0.005326321,-0.017044229,-0.007456850,-0.559046090,0.386663586,9.302670479
3273.815760714,-0.006391586,-0.004261057,-0.003195793,-0.567425787,0.395043284,9.312247276
3273.817924595,0.000000000,-0.013848436,-0.004261057,-0.567425787,0.395043284,9.312247276
3273.819947777,-0.001065264,-0.017044229,0.005326321,-0.563834488,0.375889659,9.344569206
3273.821728713,-0.008522115,-0.015978964,-0.006391586,-0.563834488,0.375889659,9.344569206
3273.823599087,0.006391586,-0.015978964,-0.002130529,-0.553060591,0.391451985,9.331400871
3273.825963768,-0.015978964,0.000000000,-0.004261057,-0.553060591,0.391451985,9.331400871
3273.827798814,-0.001065264,-0.006391586,-0.003195793,-0.553060591,0.391451985,9.331400871
3273.829852694,-0.005326321,-0.013848436,-0.001065264,-0.557848990,0.395043284,9.399636269
3273.831794336,-0.003195793,-0.003195793,-0.002130529,-0.557848990,0.395043284,9.399636269
3273.833774614,0.001065264,-0.015978964,-0.004261057,-0.549469292,0.371101260,9.342175484
3273.835771248,-0.006391586,-0.013848436,-0.005326321,-0.549469292,0.371101260,9.342175484
3273.837964785,-0.013848436,-0.011717907,-0.005326321,-0.549469292,0.371101260,9.342175484
3273.839822941,0.004261057,-0.002130529,-0.002130529,-0.560243189,0.393846184,9.329007149
3273.841734247,-0.008522115,-0.010652643,-0.007456850,-0.560243189,0.393846184,9.329007149
3273.843776324,-0.003195793,-0.009587379,-0.011717907,-0.548272192,0.395043284,9.355342865
3273.845646521,-0.003195793,-0.009587379,-0.008522115,-0.548272192,0.395043284,9.355342865
3273.847657135,-0.008522115,-0.013848436,-0.005326321,-0.548272192,0.395043284,9.355342865
3273.849578854,-0.006391586,-0.013848436,-0.006391586,-0.549469292,0.390254885,9.297882080
3273.851765683,0.003195793,-0.004261057,-0.009587379,-0.549469292,0.390254885,9.297882080
3273.853629484,-0.003195793,0.000000000,-0.002130529,-0.553060591,0.401028782,9.303867340
3273.855825599,-0.019174758,-0.005326321,0.006391586,-0.553060591,0.401028782,9.303867340
3273.857766094,0.005326321,-0.009587379,-0.008522115,-0.553060591,0.401028782,9.303867340
3273.859974222,-0.004261057,-0.025566343,0.002130529,-0.548272192,0.391451985,9.372102737
3273.861971094,-0.008522115,0.004261057,-0.006391586,-0.548272192,0.391451985,9.372102737
3273.863975503,-0.008522115,-0.019174758,0.011717907,-0.562637389,0.383072257,9.326612473
3273.865734909,0.004261057,-0.011717907,-0.006391586,-0.562637389,0.383072257,9.326612473
3273.867652768,0.008522115,-0.018109493,-0.012783172,-0.562637389,0.383072257,9.326612473
3273.869892280,-0.015978964,-0.014913701,-0.002130529,-0.541089594,0.420182407,9.267954826
3273.871615497,-0.002130529,-0.011717907,0.001065264,-0.541089594,0.420182407,9.267954826
3273.873691637,-0.011717907,-0.006391586,-0.001065264,-0.530315697,0.383072257,9.351752281
3273.875963689,-0.004261057,-0.012783172,0.005326321,-0.530315697,0.383072257,9.351752281
3273.877853245,-0.010652643,-0.011717907,-0.001065264,-0.530315697,0.383072257,9.351752281
3273.880033901,0.010652643,-0.013848436,-0.002130529,-0.574608386,0.384269387,9.313444138
3273.881812144,0.001065264,-0.020240022,-0.001065264,-0.574608386,0.384269387,9.313444138
3273.883802028,0.000000000,-0.011717907,-0.001065264,-0.554257691,0.357933164,9.331400871
3273.885748836,-0.004261057,-0.006391586,-0.003195793,-0.554257691,0.357933164,9.331400871
3273.887960524,-0.005326321,-0.001065264,-0.010652643,-0.554257691,0.357933164,9.331400871
3273.889735227,-0.018109493,-0.008522115,0.002130529,-0.565031588,0.390254885,9.380482674
3273.891939061,0.000000000,0.003195793,-0.007456850,-0.565031588,0.390254885,9.380482674
3273.893690545,0.005326321,-0.003195793,-0.002130529,-0.565031588,0.391451985,9.312247276
3273.895957697,-0.006391586,-0.009587379,0.001065264,-0.565031588,0.391451985,9.312247276
3273.897926117,-0.004261057,-0.009587379,-0.002130529,-0.565031588,0.391451985,9.312247276
3273.899978379,-0.006391586,-0.010652643,0.001065264,-0.557848990,0.383072257,9.338583946
3273.901978962,-0.013848436,-0.006391586,0.003195793,-0.557848990,0.383072257,9.338583946
3273.903794775,-0.014913701,0.002130529,-0.002130529,-0.550666392,0.396240383,9.379284859
3273.905821285,-0.001065264,-0.017044229,0.000000000,-0.550666392,0.396240383,9.379284859
3273.907747357,-0.003195793,-0.010652643,-0.003195793,-0.550666392,0.396240383,9.379284859
3273.909652814,-0.014913701,-0.009587379,-0.008522115,-0.562637389,0.371101260,9.297882080
3273.911650429,-0.007456850,-0.010652643,0.005326321,-0.562637389,0.371101260,9.297882080
3273.913567952,-0.007456850,-0.001065264,0.005326321,-0.562637389,0.371101260,9.297882080
3273.915459291,0.000000000,-0.013848436,0.002130529,-0.542286694,0.375889659,9.315838814
3273.917587272,-0.012783172,-0.004261057,-0.013848436,-0.542286694,0.375889659,9.315838814
3273.919570063,0.000000000,-0.015978964,-0.005326321,-0.551863492,0.375889659,9.357737541
3273.921499043,-0.018109493,0.001065264,0.006391586,-0.551863492,0.375889659,9.357737541
3273.923554756,-0.006391586,-0.013848436,0.003195793,-0.587776542,0.381875157,9.325415611
3273.925510380,0.004261057,-0.020240022,-0.002130529,-0.587776542,0.381875157,9.325415611
3273.927646479,-0.009587379,-0.013848436,0.001065264,-0.587776542,0.381875157,9.325415611
3273.929457015,-0.012783172,-0.004261057,0.006391586,-0.548272192,0.391451985,9.330204010
3273.931415159,-0.013848436,-0.007456850,0.000000000,-0.548272192,0.391451985,9.330204010
3273.933489366,-0.003195793,-0.023435814,-0.008522115,-0.551863492,0.365115762,9.343372345
3273.935511236,-0.003195793,-0.009587379,-0.010652643,-0.551863492,0.365115762,9.343372345
3273.937596634,-0.006391586,-0.005326321,-0.001065264,-0.551863492,0.365115762,9.343372345
3273.939640745,-0.006391586,-0.024501080,-0.003195793,-0.572214186,0.384269387,9.278728485
3273.941820784,-0.004261057,-0.013848436,0.000000000,-0.572214186,0.384269387,9.278728485
3273.943769126,0.001065264,-0.002130529,0.003195793,-0.575805485,0.355538964,9.340977669
3273.945633219,-0.008522115,-0.008522115,-0.002130529,-0.575805485,0.355538964,9.340977669
3273.947941703,-0.011717907,-0.001065264,-0.006391586,-0.575805485,0.355538964,9.340977669
3273.950250562,0.003195793,-0.010652643,-0.009587379,-0.585382342,0.389057785,9.394847870
3273.951647408,-0.009587379,-0.010652643,0.001065264,-0.585382342,0.389057785,9.394847870
3273.953791631,-0.013848436,-0.006391586,-0.001065264,-0.568622887,0.405817181,9.336189270
3273.955689923,-0.007456850,-0.001065264,0.004261057,-0.568622887,0.405817181,9.336189270
3273.957693455,-0.008522115,-0.014913701,0.001065264,-0.568622887,0.405817181,9.336189270
3273.959692594,0.008522115,-0.009587379,-0.005326321,-0.567425787,0.361524463,9.362525940
3273.961587327,0.006391586,-0.010652643,-0.006391586,-0.567425787,0.361524463,9.362525940
3273.963548159,-0.009587379,-0.007456850,0.000000000,-0.542286694,0.381875157,9.330204010
3273.965626460,-0.001065264,-0.023435814,-0.005326321,-0.542286694,0.381875157,9.330204010
3273.968037375,0.001065264,0.003195793,-0.013848436,-0.542286694,0.381875157,9.330204010
3273.969640371,-0.019174758,-0.010652643,-0.003195793,-0.554257691,0.407014281,9.326612473
3273.971903917,-0.002130529,-0.005326321,0.004261057,-0.554257691,0.407014281,9.326612473
3273.973698863,-0.004261057,-0.009587379,-0.003195793,-0.578199685,0.375889659,9.357737541
3273.975872717,0.003195793,-0.007456850,-0.003195793,-0.578199685,0.375889659,9.357737541
3273.977652938,-0.006391586,-0.017044229,0.001065264,-0.559046090,0.372298360,9.409213066
3273.979563985,-0.004261057,-0.009587379,-0.015978964,-0.559046090,0.372298360,9.409213066
3273.981684735,-0.007456850,-0.012783172,0.001065264,-0.559046090,0.372298360,9.409213066
3273.983666245,-0.001065264,-0.009587379,-0.009587379,-0.559046090,0.402225882,9.306262016
3273.985713738,-0.006391586,-0.005326321,-0.017044229,-0.559046090,0.402225882,9.306262016
3273.987951252,-0.014913701,0.000000000,0.005326321,-0.548272192,0.396240383,9.324218750
3273.989687883,-0.004261057,-0.015978964,-0.002130529,-0.548272192,0.396240383,9.324218750
3273.991860368,-0.009587379,-0.014913701,0.007456850,-0.548272192,0.396240383,9.324218750
3273.993685322,-0.004261057,-0.014913701,-0.017044229,-0.566228688,0.375889659,9.272743225
3273.995606026,-0.020240022,-0.006391586,0.002130529,-0.566228688,0.375889659,9.272743225
3273.997740062,0.001065264,-0.012783172,-0.005326321,-0.557848990,0.381875157,9.273940086
3273.999664209,-0.006391586,-0.003195793,0.000000000,-0.557848990,0.381875157,9.273940086
3274.001860388,-0.008522115,-0.004261057,-0.002130529,-0.557848990,0.381875157,9.273940086
3274.003684293,-0.002130529,-0.014913701,0.000000000,-0.566228688,0.378283858,9.345766068
3274.005888518,-0.007456850,-0.003195793,0.000000000,-0.566228688,0.378283858,9.345766068
3274.007745135,0.001065264,-0.015978964,0.002130529,-0.535104096,0.375889659,9.321824074
3274.009671776,0.010652643,-0.009587379,0.002130529,-0.535104096,0.375889659,9.321824074
3274.011889267,-0.009587379,-0.008522115,0.000000000,-0.535104096,0.375889659,9.321824074
3274.013689219,-0.006391586,-0.005326321,0.002130529,-0.559046090,0.391451985,9.289502144
3274.015861902,0.000000000,-0.008522115,-0.009587379,-0.559046090,0.391451985,9.289502144
3274.017665072,0.000000000,-0.015978964,-0.002130529,-0.545877993,0.372298360,9.384073257
3274.019645711,-0.015978964,0.000000000,0.001065264,-0.545877993,0.372298360,9.384073257
3274.021619782,0.004261057,-0.013848436,-0.003195793,-0.545877993,0.372298360,9.384073257
3274.023600585,-0.002130529,0.002130529,-0.003195793,-0.551863492,0.386663586,9.334992409
3274.025764789,-0.011717907,-0.008522115,-0.009587379,-0.551863492,0.386663586,9.334992409
3274.027829797,0.000000000,-0.001065264,0.005326321,-0.557848990,0.371101260,9.277531624
3274.029723956,0.002130529,-0.008522115,-0.003195793,-0.557848990,0.371101260,9.277531624
3274.031757241,-0.010652643,-0.008522115,-0.001065264,-0.557848990,0.371101260,9.277531624
3274.033726631,-0.001065264,-0.007456850,-0.001065264,-0.539892495,0.371101260,9.345766068
3274.035742257,-0.011717907,-0.006391586,0.006391586,-0.539892495,0.371101260,9.345766068
3274.037897169,-0.006391586,-0.019174758,0.004261057,-0.563834488,0.379480958,9.324218750
3274.039707153,-0.014913701,-0.013848436,-0.004261057,-0.563834488,0.379480958,9.324218750
3274.041627094,-0.002130529,-0.012783172,0.005326321,-0.563834488,0.379480958,9.324218750
3274.043883745,-0.007456850,-0.001065264,-0.002130529,-0.578199685,0.393846184,9.336189270
3274.045647082,-0.003195793,-0.001065264,0.002130529,-0.578199685,0.393846184,9.336189270
3274.047684525,-0.014913701,-0.012783172,-0.011717907,-0.547075093,0.365115762,9.393650055
3274.049701173,-0.007456850,-0.005326321,-0.002130529,-0.547075093,0.365115762,9.393650055
3274.051710946,-0.007456850,-0.014913701,-0.004261057,-0.547075093,0.365115762,9.393650055
3274.053739581,-0.018109493,-0.001065264,-0.005326321,-0.526724398,0.369904160,9.290699959
3274.055731125,0.000000000,-0.003195793,0.010652643,-0.526724398,0.369904160,9.290699959
3274.057916079,-0.003195793,-0.007456850,-0.010652643,-0.555454791,0.385466486,9.361329079
3274.059699329,-0.002130529,-0.011717907,-0.010652643,-0.555454791,0.385466486,9.361329079
3274.061887717,-0.003195793,-0.008522115,-0.005326321,-0.555454791,0.385466486,9.361329079
3274.063686880,-0.012783172,-0.009587379,0.000000000,-0.543483794,0.389057785,9.320627213
3274.065705201,-0.001065264,-0.009587379,0.002130529,-0.543483794,0.389057785,9.320627213
3274.067675129,-0.018109493,0.010652643,-0.007456850,-0.562637389,0.378283858,9.314641953
3274.069768641,-0.007456850,0.002130529,0.006391586,-0.562637389,0.378283858,9.314641953
3274.071743432,-0.008522115,-0.012783172,-0.002130529,-0.562637389,0.378283858,9.314641953
3274.073730723,-0.005326321,-0.002130529,0.000000000,-0.562637389,0.383072257,9.388861656
3274.075721492,0.000000000,-0.010652643,-0.005326321,-0.562637389,0.383072257,9.388861656
3274.077654755,-0.011717907,-0.005326321,0.005326321,-0.544680893,0.385466486,9.369708061
3274.079686278,-0.002130529,-0.013848436,-0.009587379,-0.544680893,0.385466486,9.369708061
3274.081607944,0.001065264,-0.018109493,-0.004261057,-0.544680893,0.385466486,9.369708061
3274.083571433,-0.012783172,-0.004261057,-0.011717907,-0.548272192,0.379480958,9.264363289
3274.085753477,-0.004261057,-0.010652643,0.002130529,-0.548272192,0.379480958,9.264363289
3274.087577464,-0.012783172,-0.002130529,-0.006391586,-0.579396784,0.379480958,9.350554466
3274.089667628,0.001065264,-0.013848436,-0.001065264,-0.579396784,0.379480958,9.350554466
3274.091820402,-0.002130529,-0.006391586,0.000000000,-0.579396784,0.379480958,9.350554466
3274.093760591,-0.008522115,-0.009587379,0.002130529,-0.567425787,0.378283858,9.349357605
3274.095744844,-0.009587379,-0.015978964,0.005326321,-0.567425787,0.378283858,9.349357605
3274.097757997,-0.012783172,-0.005326321,0.001065264,-0.555454791,0.401028782,9.278728485
3274.099409727,0.000000000,-0.008522115,-0.006391586,-0.555454791,0.401028782,9.278728485
3274.101773628,-0.005326321,-0.001065264,-0.007456850,-0.555454791,0.401028782,9.278728485
3274.103648377,-0.009587379,-0.008522115,0.001065264,-0.551863492,0.377086759,9.370905876
3274.105769017,-0.012783172,-0.004261057,0.000000000,-0.551863492,0.377086759,9.370905876
3274.107771904,0.000000000,-0.013848436,-0.007456850,-0.560243189,0.362721562,9.354146004
3274.109801475,-0.013848436,-0.013848436,-0.009587379,-0.560243189,0.362721562,9.354146004
3274.111749079,0.004261057,-0.015978964,0.004261057,-0.560243189,0.362721562,9.354146004
3274.113811080,-0.010652643,0.000000000,-0.002130529,-0.560243189,0.374692559,9.312247276
3274.115792026,-0.007456850,-0.009587379,-0.002130529,-0.560243189,0.374692559,9.312247276
3274.117767934,-0.003195793,0.001065264,0.002130529,-0.560243189,0.374692559,9.312247276
3274.119774355,-0.008522115,-0.008522115,-0.001065264,-0.548272192,0.365115762,9.404424667
3274.121666750,-0.005326321,-0.015978964,-0.006391586,-0.548272192,0.365115762,9.404424667
3274.123812845,0.006391586,-0.017044229,-0.008522115,-0.554257691,0.381875157,9.300276756
3274.125913014,0.001065264,-0.006391586,-0.013848436,-0.554257691,0.381875157,9.300276756
3274.127901547,0.001065264,-0.014913701,0.001065264,-0.569819987,0.408211380,9.276334763
3274.129808645,-0.006391586,-0.012783172,-0.002130529,-0.569819987,0.408211380,9.276334763
3274.132038145,-0.003195793,-0.006391586,0.002130529,-0.554257691,0.390254885,9.393650055
3274.133796323,-0.008522115,-0.018109493,0.002130529,-0.554257691,0.390254885,9.393650055
3274.135859394,-0.008522115,0.008522115,0.006391586,-0.554257691,0.390254885,9.393650055
3274.137848330,-0.005326321,-0.017044229,-0.006391586,-0.560243189,0.377086759,9.336189270
3274.139855619,-0.007456850,-0.009587379,0.003195793,-0.560243189,0.377086759,9.336189270
3274.141754436,0.000000000,-0.014913701,-0.006391586,-0.533906996,0.377086759,9.332598686
3274.143907651,-0.009587379,-0.009587379,-0.011717907,-0.533906996,0.377086759,9.332598686
3274.145922432,-0.001065264,-0.004261057,-0.011717907,-0.533906996,0.377086759,9.332598686
3274.147813284,-0.004261057,-0.015978964,-0.008522115,-0.573411286,0.372298360,9.381679535
3274.149804481,-0.003195793,-0.003195793,0.001065264,-0.573411286,0.372298360,9.381679535
3274.151815317,-0.009587379,0.001065264,0.009587379,-0.598550439,0.384269387,9.264363289
3274.153745654,-0.003195793,-0.007456850,-0.004261057,-0.598550439,0.384269387,9.264363289
3274.155928871,-0.020240022,-0.005326321,-0.005326321,-0.598550439,0.384269387,9.264363289
3274.157822256,-0.001065264,-0.011717907,-0.009587379,-0.551863492,0.412999779,9.303867340
3274.159839607,-0.013848436,-0.008522115,0.003195793,-0.551863492,0.412999779,9.303867340
3274.161995303,-0.008522115,-0.007456850,-0.004261057,-0.556651890,0.375889659,9.379284859
3274.163867750,-0.001065264,-0.008522115,-0.004261057,-0.556651890,0.375889659,9.379284859
3274.165952503,0.003195793,-0.005326321,-0.009587379,-0.556651890,0.375889659,9.379284859
3274.167810496,-0.002130529,-0.011717907,-0.008522115,-0.568622887,0.359130263,9.313444138
3274.169950183,0.002130529,0.005326321,0.001065264,-0.568622887,0.359130263,9.313444138
3274.171828851,-0.007456850,-0.002130529,0.001065264,-0.538695395,0.396240383,9.336189270
3274.173895010,-0.009587379,-0.015978964,0.000000000,-0.538695395,0.396240383,9.336189270
3274.175907521,-0.008522115,-0.007456850,0.005326321,-0.538695395,0.396240383,9.336189270
3274.177924513,0.006391586,-0.007456850,-0.001065264,-0.559046090,0.380678058,9.385271072
3274.179929112,-0.003195793,-0.005326321,-0.001065264,-0.559046090,0.380678058,9.385271072
3274.181810626,0.008522115,-0.009587379,-0.005326321,-0.560243189,0.396240383,9.288305283
3274.183854342,-0.004261057,-0.009587379,0.000000000,-0.560243189,0.396240383,9.288305283
3274.185846902,-0.003195793,-0.011717907,0.008522115,-0.560243189,0.396240383,9.288305283
3274.187814892,0.006391586,-0.017044229,-0.019174758,-0.559046090,0.397437483,9.320627213
3274.189715993,-0.010652643,-0.009587379,0.000000000,-0.559046090,0.397437483,9.320627213
3274.191732928,-0.021305285,-0.009587379,0.005326321,-0.531512797,0.366312861,9.384073257
3274.193894848,0.005326321,-0.006391586,0.004261057,-0.531512797,0.366312861,9.384073257
3274.195899824,-0.005326321,-0.004261057,-0.002130529,-0.531512797,0.366312861,9.384073257
3274.197725682,-0.006391586,-0.019174758,-0.003195793,-0.548272192,0.374692559,9.343372345
3274.199799796,0.006391586,-0.018109493,-0.009587379,-0.548272192,0.374692559,9.343372345
3274.201795808,-0.002130529,-0.012783172,0.001065264,-0.561440289,0.362721562,9.343372345
3274.203708843,-0.010652643,0.007456850,-0.008522115,-0.561440289,0.362721562,9.343372345
3274.205827066,-0.005326321,-0.002130529,0.001065264,-0.561440289,0.362721562,9.343372345
3274.207890151,0.000000000,-0.014913701,-0.006391586,-0.565031588,0.387860686,9.331400871
3274.209757084,0.003195793,-0.013848436,-0.003195793,-0.565031588,0.387860686,9.331400871
3274.211967709,-0.002130529,-0.013848436,-0.003195793,-0.573411286,0.384269387,9.296685219
3274.213820568,-0.011717907,-0.015978964,-0.003195793,-0.573411286,0.384269387,9.296685219
3274.216002277,0.012783172,-0.012783172,-0.008522115,-0.573411286,0.384269387,9.296685219
3274.217784397,-0.002130529,-0.019174758,-0.009587379,-0.562637389,0.398634583,9.327810287
3274.219959160,-0.011717907,-0.004261057,0.012783172,-0.562637389,0.398634583,9.327810287
3274.221710211,-0.022370551,-0.013848436,0.003195793,-0.551863492,0.397437483,9.317035675
3274.223774135,-0.009587379,-0.008522115,0.011717907,-0.551863492,0.397437483,9.317035675
3274.225807238,-0.006391586,0.004261057,-0.003195793,-0.551863492,0.397437483,9.317035675
3274.227772588,-0.023435814,-0.002130529,0.007456850,-0.544680893,0.399831682,9.311050415
3274.229827455,-0.004261057,-0.011717907,0.001065264,-0.544680893,0.399831682,9.311050415
3274.231999463,-0.007456850,-0.014913701,-0.002130529,-0.538695395,0.380678058,9.368511200
3274.233805120,-0.001065264,-0.005326321,-0.005326321,-0.538695395,0.380678058,9.368511200
3274.235778136,-0.012783172,-0.009587379,0.000000000,-0.538695395,0.380678058,9.368511200
3274.238001189,0.007456850,-0.017044229,-0.003195793,-0.559046090,0.368707061,9.318233490
3274.239809756,-0.002130529,-0.012783172,0.004261057,-0.559046090,0.368707061,9.318233490
3274.242060365,-0.007456850,-0.004261057,0.008522115,-0.557848990,0.371101260,9.295488358
3274.243955520,0.008522115,-0.007456850,-0.002130529,-0.557848990,0.371101260,9.295488358
3274.245720063,-0.010652643,-0.008522115,0.007456850,-0.557848990,0.371101260,9.295488358
3274.247743659,-0.013848436,-0.020240022,0.001065264,-0.543483794,0.386663586,9.393650055
3274.249719851,0.000000000,-0.010652643,-0.001065264,-0.543483794,0.386663586,9.393650055
3274.252178743,-0.008522115,-0.012783172,0.004261057,-0.554257691,0.392649084,9.357737541
3274.253764569,-0.006391586,-0.013848436,0.006391586,-0.554257691,0.392649084,9.357737541
3274.255752124,-0.008522115,-0.001065264,0.002130529,-0.554257691,0.392649084,9.357737541
3274.258017046,-0.013848436,-0.013848436,-0.001065264,-0.548272192,0.378283858,9.327810287
3274.259799254,0.006391586,-0.012783172,0.000000000,-0.548272192,0.378283858,9.327810287
3274.261997390,-0.012783172,-0.005326321,-0.003195793,-0.571017087,0.395043284,9.379284859
3274.263831077,0.000000000,-0.015978964,-0.003195793,-0.571017087,0.395043284,9.379284859
3274.265794161,-0.005326321,-0.012783172,0.004261057,-0.571017087,0.395043284,9.379284859
3274.267822635,-0.005326321,0.000000000,0.004261057,-0.543483794,0.398634583,9.348160744
3274.269830435,-0.013848436,-0.022370551,-0.007456850,-0.543483794,0.398634583,9.348160744
3274.271790819,0.004261057,-0.009587379,0.000000000,-0.555454791,0.392649084,9.326612473
3274.273807071,0.009587379,-0.005326321,-0.005326321,-0.555454791,0.392649084,9.326612473
3274.275989843,-0.006391586,-0.006391586,-0.002130529,-0.555454791,0.392649084,9.326612473
3274.277831119,-0.010652643,-0.005326321,0.000000000,-0.565031588,0.392649084,9.369708061
3274.279821713,0.001065264,0.000000000,0.003195793,-0.565031588,0.392649084,9.369708061
3274.281821702,0.000000000,-0.013848436,0.001065264,-0.579396784,0.384269387,9.264363289
3274.283759007,-0.007456850,-0.007456850,-0.002130529,-0.579396784,0.384269387,9.264363289
3274.285706152,0.003195793,-0.007456850,0.000000000,-0.551863492,0.385466486,9.321824074
3274.287969173,0.003195793,-0.015978964,-0.004261057,-0.551863492,0.385466486,9.321824074
3274.289973696,0.000000000,-0.009587379,-0.002130529,-0.551863492,0.385466486,9.321824074
3274.291794542,-0.008522115,-0.007456850,-0.004261057,-0.554257691,0.378283858,9.369708061
3274.294020311,-0.003195793,-0.013848436,0.003195793,-0.554257691,0.378283858,9.369708061
3274.295773511,-0.006391586,-0.009587379,0.003195793,-0.557848990,0.377086759,9.307458878
3274.297943328,-0.005326321,-0.007456850,0.000000000,-0.557848990,0.377086759,9.307458878
3274.299803007,-0.006391586,-0.013848436,0.000000000,-0.557848990,0.377086759,9.307458878
3274.301785848,-0.012783172,-0.003195793,0.006391586,-0.559046090,0.398634583,9.315838814
3274.303730527,-0.009587379,-0.019174758,-0.001065264,-0.559046090,0.398634583,9.315838814
3274.305811714,-0.007456850,-0.005326321,-0.006391586,-0.556651890,0.377086759,9.386467934
3274.307779726,-0.021305285,-0.011717907,0.000000000,-0.556651890,0.377086759,9.386467934
3274.309794446,-0.010652643,0.000000000,0.000000000,-0.556651890,0.377086759,9.386467934
3274.311792398,-0.008522115,-0.001065264,-0.010652643,-0.573411286,0.399831682,9.281123161
3274.313813212,-0.002130529,-0.017044229,0.001065264,-0.573411286,0.399831682,9.281123161
3274.315846212,0.001065264,-0.010652643,0.006391586,-0.588973641,0.371101260,9.356540680
3274.317841066,-0.002130529,-0.026631609,-0.006391586,-0.588973641,0.371101260,9.356540680
3274.319859958,-0.010652643,-0.006391586,-0.004261057,-0.588973641,0.371101260,9.356540680
3274.321817921,0.000000000,-0.005326321,0.004261057,-0.560243189,0.359130263,9.358934402
3274.323797294,-0.008522115,-0.011717907,0.001065264,-0.560243189,0.359130263,9.358934402
3274.325773709,0.000000000,-0.013848436,0.002130529,-0.579396784,0.373495460,9.306262016
3274.327778871,-0.009587379,-0.005326321,-0.003195793,-0.579396784,0.373495460,9.306262016
3274.329771671,-0.004261057,-0.010652643,0.001065264,-0.579396784,0.373495460,9.306262016
3274.331770494,-0.006391586,-0.013848436,-0.006391586,-0.541089594,0.381875157,9.326612473
3274.333764545,-0.010652643,-0.008522115,-0.002130529,-0.541089594,0.381875157,9.326612473
3274.335736656,0.000000000,-0.007456850,-0.005326321,-0.538695395,0.367509961,9.342175484
3274.337835171,-0.011717907,-0.003195793,-0.009587379,-0.538695395,0.367509961,9.342175484
3274.339814775,-0.001065264,0.001065264,-0.007456850,-0.538695395,0.367509961,9.342175484
3274.341803914,-0.006391586,-0.017044229,-0.003195793,-0.572214186,0.365115762,9.300276756
3274.343864020,-0.013848436,-0.007456850,0.004261057,-0.572214186,0.365115762,9.300276756
3274.345873065,-0.011717907,-0.001065264,-0.006391586,-0.568622887,0.380678058,9.380482674
3274.347758227,-0.010652643,0.003195793,0.008522115,-0.568622887,0.380678058,9.380482674
3274.349786243,-0.001065264,-0.009587379,-0.003195793,-0.568622887,0.380678058,9.380482674
3274.351825422,-0.003195793,-0.009587379,-0.006391586,-0.542286694,0.378283858,9.336189270
3274.353770650,-0.009587379,-0.002130529,0.005326321,-0.542286694,0.378283858,9.336189270
3274.355683727,-0.012783172,-0.013848436,-0.001065264,-0.557848990,0.369904160,9.312247276
3274.357962273,-0.004261057,-0.003195793,-0.003195793,-0.557848990,0.369904160,9.312247276
3274.359978585,-0.008522115,-0.007456850,-0.008522115,-0.557848990,0.369904160,9.312247276
3274.361963264,-0.011717907,-0.017044229,-0.014913701,-0.530315697,0.379480958,9.374496460
3274.364018631,-0.002130529,-0.005326321,0.001065264,-0.530315697,0.379480958,9.374496460
3274.365834150,-0.005326321,-0.002130529,0.000000000,-0.550666392,0.362721562,9.355342865
3274.367984513,-0.012783172,-0.004261057,0.001065264,-0.550666392,0.362721562,9.355342865
3274.369836219,-0.002130529,-0.022370551,-0.005326321,-0.550666392,0.362721562,9.355342865
3274.371822290,0.004261057,0.000000000,-0.002130529,-0.543483794,0.374692559,9.282320023
3274.373836902,-0.005326321,-0.006391586,0.002130529,-0.543483794,0.374692559,9.282320023
3274.375997841,-0.005326321,0.001065264,0.000000000,-0.555454791,0.402225882,9.334992409
3274.377980333,-0.003195793,-0.008522115,-0.003195793,-0.555454791,0.402225882,9.334992409
3274.379771332,-0.009587379,-0.008522115,-0.001065264,-0.555454791,0.402225882,9.334992409
3274.382009099,-0.013848436,-0.015978964,-0.008522115,-0.573411286,0.383072257,9.284713745
3274.383966469,-0.003195793,-0.009587379,-0.011717907,-0.573411286,0.383072257,9.284713745
3274.385985267,-0.011717907,0.003195793,-0.001065264,-0.573411286,0.383072257,9.284713745
3274.387823709,-0.004261057,-0.009587379,-0.005326321,-0.559046090,0.404620081,9.352949142
3274.389981545,-0.002130529,0.001065264,0.001065264,-0.559046090,0.404620081,9.352949142
3274.391989322,0.005326321,-0.015978964,-0.002130529,-0.541089594,0.372298360,9.385271072
3274.393935217,-0.010652643,-0.002130529,0.001065264,-0.541089594,0.372298360,9.385271072
3274.395741208,-0.007456850,-0.010652643,0.001065264,-0.560243189,0.355538964,9.295488358
3274.397740503,-0.002130529,-0.009587379,-0.004261057,-0.560243189,0.355538964,9.295488358
3274.399751081,0.000000000,-0.005326321,-0.014913701,-0.560243189,0.355538964,9.295488358
3274.401702040,-0.001065264,-0.007456850,-0.004261057,-0.571017087,0.381875157,9.307458878
3274.403748769,-0.008522115,-0.017044229,0.002130529,-0.571017087,0.381875157,9.307458878
3274.405882265,0.000000000,-0.007456850,-0.012783172,-0.566228688,0.396240383,9.364919662
3274.407833173,-0.009587379,0.004261057,-0.011717907,-0.566228688,0.396240383,9.364919662
3274.409885559,-0.010652643,-0.008522115,-0.004261057,-0.566228688,0.396240383,9.364919662
3274.411859514,-0.001065264,-0.013848436,0.005326321,-0.539892495,0.385466486,9.325415611
3274.413796757,-0.003195793,0.001065264,0.007456850,-0.539892495,0.385466486,9.325415611
