t_sys,gyro_x,gyro_y,gyro_z,acc_x,acc_y,acc_z
7269.446815989,-0.001065264,-0.009587379,0.006391586,-0.797269166,0.410605580,9.313444138
7269.448774762,-0.012783172,-0.002130529,0.003195793,-0.780509770,0.389057785,9.388861656
7269.450373676,-0.003195793,-0.004261057,0.001065264,-0.780509770,0.389057785,9.388861656
7269.452694005,0.005326321,-0.005326321,-0.010652643,-0.760159016,0.393846184,9.356540680
7269.454581641,-0.003195793,-0.003195793,0.011717907,-0.760159016,0.393846184,9.356540680
7269.456304974,-0.002130529,-0.009587379,-0.004261057,-0.760159016,0.393846184,9.356540680
7269.458686973,-0.002130529,-0.007456850,-0.007456850,-0.772130072,0.422576606,9.348160744
7269.460676190,-0.004261057,-0.013848436,-0.006391586,-0.772130072,0.422576606,9.348160744
7269.462683173,-0.001065264,-0.010652643,0.001065264,-0.797269166,0.378283858,9.372102737
7269.464865916,-0.007456850,0.002130529,0.001065264,-0.797269166,0.378283858,9.372102737
7269.466867737,0.005326321,-0.011717907,-0.008522115,-0.797269166,0.378283858,9.372102737
7269.468933451,-0.011717907,-0.005326321,0.004261057,-0.784101069,0.392649084,9.284713745
7269.470921561,-0.005326321,-0.002130529,0.018109493,-0.784101069,0.392649084,9.284713745
7269.473307259,0.003195793,-0.007456850,-0.008522115,-0.768538773,0.433350503,9.350554466
7269.475314946,0.015978964,-0.025566343,-0.006391586,-0.768538773,0.433350503,9.350554466
7269.477068716,-0.003195793,-0.010652643,-0.002130529,-0.768538773,0.433350503,9.350554466
7269.479306199,0.001065264,-0.005326321,-0.021305285,-0.797269166,0.405817181,9.384073257
7269.481183622,0.003195793,0.000000000,0.004261057,-0.797269166,0.405817181,9.384073257
7269.483175732,0.006391586,-0.009587379,-0.010652643,-0.803254664,0.402225882,9.307458878
7269.485076273,-0.007456850,-0.017044229,-0.002130529,-0.803254664,0.402225882,9.307458878
7269.487264854,0.006391586,-0.001065264,-0.006391586,-0.803254664,0.402225882,9.307458878
7269.489132032,0.002130529,-0.007456850,-0.006391586,-0.798466265,0.398634583,9.364919662
7269.491272068,0.000000000,-0.008522115,-0.003195793,-0.798466265,0.398634583,9.364919662
7269.493089373,-0.005326321,-0.006391586,0.000000000,-0.782903969,0.399831682,9.303867340
7269.495305935,-0.014913701,0.000000000,-0.012783172,-0.782903969,0.399831682,9.303867340
7269.497094443,-0.003195793,-0.011717907,-0.007456850,-0.782903969,0.399831682,9.303867340
7269.499265075,-0.005326321,-0.002130529,-0.011717907,-0.769735873,0.390254885,9.340977669
7269.501098493,-0.006391586,-0.006391586,0.003195793,-0.769735873,0.390254885,9.340977669
7269.503254857,0.002130529,-0.012783172,0.002130529,-0.779312670,0.398634583,9.367314339
7269.505241418,0.004261057,-0.012783172,0.006391586,-0.779312670,0.398634583,9.367314339
7269.507106952,-0.006391586,-0.003195793,-0.004261057,-0.779312670,0.398634583,9.367314339
7269.509248884,0.005326321,-0.021305285,0.017044229,-0.784101069,0.409408480,9.324218750
7269.510909388,-0.004261057,-0.007456850,-0.011717907,-0.784101069,0.409408480,9.324218750
7269.513268912,-0.005326321,-0.014913701,-0.009587379,-0.788889468,0.403422982,9.325415611
7269.515326161,0.000000000,-0.002130529,-0.008522115,-0.788889468,0.403422982,9.325415611
7269.517104994,-0.001065264,-0.002130529,-0.011717907,-0.788889468,0.403422982,9.325415611
7269.519217387,-0.001065264,0.000000000,0.003195793,-0.781706870,0.412999779,9.378087997
7269.521248921,-0.008522115,-0.007456850,0.006391586,-0.781706870,0.412999779,9.378087997
7269.523137837,0.002130529,-0.003195793,-0.007456850,-0.797269166,0.401028782,9.309853554
7269.525322321,-0.002130529,-0.015978964,0.000000000,-0.797269166,0.401028782,9.309853554
7269.527359548,-0.002130529,-0.024501080,-0.011717907,-0.797269166,0.401028782,9.309853554
7269.529206166,-0.010652643,-0.001065264,-0.008522115,-0.784101069,0.395043284,9.330204010
7269.531185115,0.001065264,-0.008522115,0.002130529,-0.784101069,0.395043284,9.330204010
7269.533105805,-0.001065264,-0.007456850,-0.008522115,-0.781706870,0.420182407,9.373299599
7269.535353876,0.002130529,-0.007456850,0.005326321,-0.781706870,0.420182407,9.373299599
7269.537327398,0.000000000,-0.022370551,-0.005326321,-0.781706870,0.420182407,9.373299599
7269.539277672,-0.003195793,-0.003195793,-0.003195793,-0.787692368,0.418985307,9.342175484
7269.541281440,-0.002130529,0.003195793,0.001065264,-0.787692368,0.418985307,9.342175484
7269.543049814,-0.005326321,-0.004261057,0.000000000,-0.785298169,0.392649084,9.369708061
7269.545072075,0.001065264,-0.010652643,-0.013848436,-0.785298169,0.392649084,9.369708061
7269.546865613,-0.007456850,-0.007456850,-0.007456850,-0.785298169,0.392649084,9.369708061
7269.549283977,-0.001065264,-0.003195793,0.003195793,-0.763750315,0.398634583,9.370905876
7269.551135439,0.002130529,-0.012783172,-0.005326321,-0.763750315,0.398634583,9.370905876
7269.553127188,0.001065264,-0.004261057,0.002130529,-0.788889468,0.410605580,9.277531624
7269.555250356,0.003195793,-0.002130529,-0.002130529,-0.788889468,0.410605580,9.277531624
7269.557179298,0.002130529,-0.010652643,-0.008522115,-0.788889468,0.410605580,9.277531624
7269.559226988,0.006391586,-0.017044229,-0.011717907,-0.782903969,0.417788208,9.384073257
7269.561056335,0.006391586,-0.010652643,0.007456850,-0.782903969,0.417788208,9.384073257
7269.563329901,-0.004261057,-0.001065264,0.015978964,-0.806845963,0.409408480,9.368511200
7269.565297116,-0.001065264,-0.017044229,-0.010652643,-0.806845963,0.409408480,9.368511200
7269.567273422,0.005326321,0.002130529,-0.004261057,-0.806845963,0.409408480,9.368511200
7269.569107130,-0.002130529,-0.008522115,0.001065264,-0.780509770,0.392649084,9.299078941
7269.571256615,-0.012783172,-0.008522115,-0.005326321,-0.780509770,0.392649084,9.299078941
7269.573053534,0.000000000,-0.015978964,-0.006391586,-0.769735873,0.369904160,9.372102737
7269.575322575,-0.011717907,-0.025566343,-0.007456850,-0.769735873,0.369904160,9.372102737
7269.577251804,-0.006391586,-0.007456850,-0.001065264,-0.769735873,0.369904160,9.372102737
7269.579243008,-0.006391586,0.004261057,-0.004261057,-0.780509770,0.403422982,9.293093681
7269.581055232,-0.002130529,0.000000000,0.002130529,-0.780509770,0.403422982,9.293093681
7269.583175702,0.000000000,-0.006391586,0.000000000,-0.774524271,0.408211380,9.338583946
7269.585217278,-0.004261057,-0.013848436,0.000000000,-0.774524271,0.408211380,9.338583946
7269.587030525,-0.005326321,-0.011717907,-0.008522115,-0.776918471,0.408211380,9.366117477
7269.589321192,-0.003195793,-0.014913701,0.008522115,-0.776918471,0.408211380,9.366117477
7269.591292871,0.005326321,-0.022370551,-0.011717907,-0.776918471,0.408211380,9.366117477
7269.593141765,0.003195793,-0.010652643,0.005326321,-0.786495268,0.386663586,9.319430351
7269.595135788,-0.004261057,-0.013848436,-0.005326321,-0.786495268,0.386663586,9.319430351
7269.597080299,0.002130529,-0.002130529,-0.003195793,-0.774524271,0.380678058,9.356540680
7269.598975974,-0.002130529,-0.005326321,0.001065264,-0.774524271,0.380678058,9.356540680
7269.601038879,-0.004261057,-0.002130529,-0.002130529,-0.774524271,0.380678058,9.356540680
7269.603226223,-0.001065264,-0.014913701,-0.010652643,-0.794874966,0.424970806,9.382876396
7269.605319993,-0.010652643,-0.006391586,0.001065264,-0.794874966,0.424970806,9.382876396
7269.607224953,-0.011717907,-0.010652643,-0.002130529,-0.762553215,0.428562105,9.327810287
7269.609233429,0.008522115,-0.003195793,-0.002130529,-0.762553215,0.428562105,9.327810287
7269.611131727,0.004261057,-0.003195793,-0.006391586,-0.762553215,0.428562105,9.327810287
7269.613116146,-0.003195793,-0.007456850,-0.002130529,-0.796072066,0.430956304,9.314641953
7269.615286865,-0.005326321,-0.010652643,-0.001065264,-0.796072066,0.430956304,9.314641953
7269.617085385,-0.002130529,-0.010652643,-0.007456850,-0.785298169,0.414196908,9.343372345
7269.619087744,0.002130529,-0.003195793,0.001065264,-0.785298169,0.414196908,9.343372345
7269.621092251,-0.003195793,-0.010652643,-0.002130529,-0.785298169,0.414196908,9.343372345
7269.623044340,-0.008522115,-0.003195793,0.002130529,-0.811634362,0.410605580,9.338583946
7269.625101542,-0.005326321,-0.014913701,-0.001065264,-0.811634362,0.410605580,9.338583946
7269.627207131,-0.006391586,-0.007456850,-0.001065264,-0.811634362,0.410605580,9.338583946
7269.629240321,-0.005326321,-0.013848436,0.004261057,-0.779312670,0.396240383,9.399636269
7269.631235939,-0.005326321,-0.013848436,-0.008522115,-0.779312670,0.396240383,9.399636269
7269.633076087,-0.002130529,-0.004261057,-0.008522115,-0.792480767,0.386663586,9.351752281
7269.635134709,-0.002130529,-0.006391586,0.002130529,-0.792480767,0.386663586,9.351752281
7269.637111379,0.003195793,-0.003195793,-0.010652643,-0.761356115,0.411802679,9.317035675
7269.639115534,-0.004261057,-0.013848436,0.000000000,-0.761356115,0.411802679,9.317035675
7269.641100521,-0.007456850,-0.010652643,0.002130529,-0.761356115,0.411802679,9.317035675
7269.643099858,0.006391586,-0.015978964,-0.005326321,-0.774524271,0.408211380,9.362525940
7269.645222550,-0.002130529,-0.007456850,0.005326321,-0.774524271,0.408211380,9.362525940
7269.647168045,-0.004261057,-0.017044229,0.003195793,-0.792480767,0.407014281,9.320627213
7269.649080277,-0.011717907,-0.002130529,-0.010652643,-0.792480767,0.407014281,9.320627213
7269.651072941,-0.005326321,-0.019174758,-0.009587379,-0.792480767,0.407014281,9.320627213
7269.653033221,0.004261057,-0.008522115,-0.005326321,-0.794874966,0.403422982,9.346963882
7269.655157163,-0.013848436,0.004261057,-0.006391586,-0.794874966,0.403422982,9.346963882
7269.657113247,0.001065264,-0.010652643,-0.006391586,-0.766144514,0.402225882,9.360131264
7269.659075509,-0.002130529,-0.007456850,-0.003195793,-0.766144514,0.402225882,9.360131264
7269.661256280,-0.009587379,-0.008522115,0.001065264,-0.766144514,0.402225882,9.360131264
7269.663228685,-0.004261057,-0.017044229,-0.003195793,-0.784101069,0.398634583,9.324218750
7269.665268598,-0.008522115,-0.005326321,-0.004261057,-0.784101069,0.398634583,9.324218750
7269.667231400,-0.008522115,-0.011717907,-0.004261057,-0.788889468,0.422576606,9.332598686
7269.669045391,-0.005326321,0.000000000,-0.004261057,-0.788889468,0.422576606,9.332598686
7269.671040653,0.001065264,-0.005326321,0.004261057,-0.788889468,0.422576606,9.332598686
7269.673222439,-0.013848436,-0.010652643,-0.006391586,-0.776918471,0.415394008,9.336189270
7269.675302704,-0.002130529,-0.004261057,-0.006391586,-0.776918471,0.415394008,9.336189270
7269.677229299,0.000000000,-0.009587379,-0.001065264,-0.776918471,0.415394008,9.336189270
7269.679319047,-0.003195793,-0.002130529,-0.007456850,-0.778115571,0.395043284,9.329007149
7269.681150357,0.010652643,-0.013848436,-0.012783172,-0.778115571,0.395043284,9.329007149
7269.683239021,-0.005326321,-0.010652643,-0.004261057,-0.796072066,0.402225882,9.327810287
7269.685117539,-0.002130529,-0.006391586,-0.002130529,-0.796072066,0.402225882,9.327810287
7269.687130946,-0.009587379,-0.006391586,0.010652643,-0.776918471,0.414196908,9.356540680
7269.689091090,-0.004261057,-0.012783172,-0.002130529,-0.776918471,0.414196908,9.356540680
7269.691275152,-0.008522115,-0.005326321,0.005326321,-0.776918471,0.414196908,9.356540680
7269.693077186,-0.005326321,-0.002130529,-0.008522115,-0.786495268,0.404620081,9.332598686
7269.695275677,-0.005326321,-0.002130529,-0.007456850,-0.786495268,0.404620081,9.332598686
7269.697210538,-0.006391586,-0.012783172,-0.015978964,-0.784101069,0.403422982,9.370905876
7269.699224529,-0.005326321,-0.013848436,0.006391586,-0.784101069,0.403422982,9.370905876
7269.701301908,0.002130529,-0.012783172,0.006391586,-0.784101069,0.403422982,9.370905876
7269.703288806,-0.013848436,-0.006391586,-0.006391586,-0.786495268,0.386663586,9.338583946
7269.705103830,0.000000000,-0.013848436,-0.005326321,-0.786495268,0.386663586,9.338583946
7269.707098557,-0.011717907,-0.002130529,-0.001065264,-0.797269166,0.422576606,9.317035675
7269.709101127,-0.001065264,-0.013848436,-0.002130529,-0.797269166,0.422576606,9.317035675
7269.711058761,-0.003195793,-0.012783172,-0.007456850,-0.797269166,0.422576606,9.317035675
7269.713473845,-0.006391586,-0.005326321,0.005326321,-0.808043063,0.408211380,9.403226852
7269.715263022,0.000000000,-0.022370551,0.000000000,-0.808043063,0.408211380,9.403226852
7269.717132236,-0.004261057,-0.019174758,0.000000000,-0.761356115,0.401028782,9.281123161
7269.719225952,0.003195793,-0.008522115,-0.008522115,-0.761356115,0.401028782,9.281123161
7269.721213187,-0.011717907,-0.009587379,-0.003195793,-0.761356115,0.401028782,9.281123161
7269.723238723,-0.014913701,-0.008522115,-0.009587379,-0.820014060,0.407014281,9.342175484
7269.725052869,-0.004261057,-0.010652643,-0.005326321,-0.820014060,0.407014281,9.342175484
7269.727240403,0.001065264,-0.010652643,0.004261057,-0.820014060,0.407014281,9.342175484
7269.729051329,-0.001065264,-0.014913701,-0.003195793,-0.806845963,0.398634583,9.394847870
7269.731040367,-0.012783172,-0.008522115,0.003195793,-0.806845963,0.398634583,9.394847870
7269.733155895,-0.009587379,0.004261057,0.020240022,-0.787692368,0.396240383,9.303867340
7269.735222842,-0.009587379,-0.012783172,-0.010652643,-0.787692368,0.396240383,9.303867340
7269.737198656,-0.006391586,-0.007456850,-0.001065264,-0.770932972,0.439336002,9.340977669
7269.739072969,0.003195793,-0.018109493,0.001065264,-0.770932972,0.439336002,9.340977669
7269.741308147,-0.007456850,-0.010652643,-0.001065264,-0.810437262,0.383072257,9.374496460
7269.743118480,-0.009587379,-0.017044229,-0.004261057,-0.810437262,0.383072257,9.374496460
7269.745158164,-0.012783172,-0.007456850,0.007456850,-0.810437262,0.383072257,9.374496460
7269.747124374,-0.007456850,-0.003195793,-0.002130529,-0.788889468,0.393846184,9.303867340
7269.749230914,-0.006391586,-0.010652643,-0.003195793,-0.788889468,0.393846184,9.303867340
7269.751286056,-0.011717907,-0.009587379,0.002130529,-0.774524271,0.418985307,9.363722801
7269.753266229,-0.001065264,-0.015978964,-0.003195793,-0.774524271,0.418985307,9.363722801
7269.755201548,-0.015978964,-0.001065264,0.002130529,-0.774524271,0.418985307,9.363722801
7269.757274159,0.007456850,-0.001065264,-0.009587379,-0.798466265,0.398634583,9.337387085
7269.759274044,-0.007456850,-0.018109493,-0.009587379,-0.798466265,0.398634583,9.337387085
7269.761274080,-0.002130529,-0.004261057,-0.010652643,-0.798466265,0.398634583,9.273940086
7269.763252947,-0.005326321,-0.003195793,-0.006391586,-0.798466265,0.398634583,9.273940086
7269.765288418,0.001065264,-0.011717907,0.002130529,-0.798466265,0.398634583,9.273940086
7269.767288515,0.002130529,-0.003195793,-0.004261057,-0.797269166,0.408211380,9.386467934
7269.769257537,-0.003195793,-0.012783172,0.002130529,-0.797269166,0.408211380,9.386467934
7269.771287341,-0.006391586,-0.017044229,-0.008522115,-0.793677866,0.374692559,9.340977669
7269.773202700,-0.018109493,-0.004261057,-0.005326321,-0.793677866,0.374692559,9.340977669
7269.775275221,-0.002130529,-0.007456850,-0.005326321,-0.793677866,0.374692559,9.340977669
7269.777439099,-0.002130529,-0.007456850,-0.005326321,-0.793677866,0.374692559,9.340977669
7269.779131901,0.004261057,-0.018109493,-0.006391586,-0.780509770,0.412999779,9.320627213
7269.781300981,-0.007456850,-0.007456850,-0.005326321,-0.785298169,0.393846184,9.336189270
7269.783229272,0.004261057,-0.009587379,-0.002130529,-0.785298169,0.393846184,9.336189270
7269.785316459,0.006391586,-0.006391586,0.005326321,-0.785298169,0.393846184,9.336189270
7269.787152934,-0.010652643,-0.003195793,-0.006391586,-0.784101069,0.408211380,9.314641953
7269.789268910,-0.009587379,-0.014913701,0.000000000,-0.784101069,0.408211380,9.314641953
7269.791074834,0.004261057,-0.006391586,0.002130529,-0.796072066,0.397437483,9.314641953
7269.793192302,-0.002130529,-0.013848436,-0.006391586,-0.796072066,0.397437483,9.314641953
7269.795118591,-0.018109493,-0.009587379,0.009587379,-0.796072066,0.397437483,9.314641953
7269.797088660,-0.005326321,-0.025566343,-0.003195793,-0.810437262,0.368707061,9.366117477
7269.799260282,0.000000000,0.000000000,-0.003195793,-0.810437262,0.368707061,9.366117477
7269.801074465,-0.015978964,-0.012783172,-0.003195793,-0.805648863,0.391451985,9.327810287
7269.803093646,-0.002130529,-0.005326321,0.006391586,-0.805648863,0.391451985,9.327810287
7269.805313746,-0.011717907,-0.002130529,-0.006391586,-0.805648863,0.391451985,9.327810287
7269.807337165,0.011717907,-0.008522115,-0.009587379,-0.776918471,0.422576606,9.321824074
7269.809089279,-0.010652643,-0.015978964,-0.004261057,-0.776918471,0.422576606,9.321824074
7269.811239318,0.001065264,-0.017044229,0.002130529,-0.820014060,0.397437483,9.358934402
7269.813092500,0.009587379,-0.010652643,0.002130529,-0.820014060,0.397437483,9.358934402
7269.815270808,-0.006391586,-0.020240022,-0.005326321,-0.820014060,0.397437483,9.358934402
7269.817140322,-0.007456850,-0.001065264,0.003195793,-0.797269166,0.418985307,9.324218750
7269.819016576,-0.007456850,-0.011717907,-0.003195793,-0.797269166,0.418985307,9.324218750
7269.821365548,0.003195793,-0.004261057,-0.003195793,-0.800860465,0.395043284,9.363722801
7269.823062172,-0.006391586,0.001065264,-0.001065264,-0.800860465,0.395043284,9.363722801
7269.825107948,0.002130529,-0.014913701,-0.005326321,-0.800860465,0.395043284,9.363722801
7269.827433899,-0.009587379,-0.007456850,-0.011717907,-0.779312670,0.415394008,9.330204010
7269.829208917,-0.002130529,-0.005326321,0.007456850,-0.779312670,0.415394008,9.330204010
7269.831083908,0.011717907,-0.010652643,0.002130529,-0.787692368,0.398634583,9.340977669
7269.833260843,-0.005326321,-0.007456850,0.006391586,-0.787692368,0.398634583,9.340977669
7269.835088322,0.003195793,-0.009587379,-0.012783172,-0.787692368,0.398634583,9.340977669
7269.837249732,0.009587379,-0.013848436,-0.009587379,-0.791283667,0.403422982,9.391256332
7269.839195932,-0.006391586,-0.006391586,-0.005326321,-0.791283667,0.403422982,9.391256332
7269.841205270,-0.001065264,-0.005326321,-0.001065264,-0.781706870,0.391451985,9.314641953
7269.843200022,0.002130529,-0.017044229,-0.007456850,-0.781706870,0.391451985,9.314641953
7269.845054657,-0.005326321,-0.006391586,-0.001065264,-0.781706870,0.391451985,9.314641953
7269.847348396,-0.009587379,-0.006391586,-0.004261057,-0.782903969,0.415394008,9.336189270
7269.849304831,-0.005326321,-0.011717907,-0.003195793,-0.782903969,0.415394008,9.336189270
7269.851309538,0.009587379,-0.008522115,-0.007456850,-0.803254664,0.398634583,9.392453194
7269.853315758,0.002130529,-0.002130529,-0.001065264,-0.803254664,0.398634583,9.392453194
7269.855176716,-0.003195793,-0.013848436,-0.005326321,-0.803254664,0.398634583,9.392453194
7269.857201945,-0.001065264,-0.005326321,-0.011717907,-0.774524271,0.417788208,9.275136948
7269.859252790,0.000000000,-0.009587379,-0.004261057,-0.774524271,0.417788208,9.275136948
7269.861280365,-0.008522115,-0.008522115,0.005326321,-0.784101069,0.407014281,9.373299599
7269.863258501,-0.011717907,-0.011717907,0.006391586,-0.784101069,0.407014281,9.373299599
7269.865215446,-0.003195793,-0.006391586,0.002130529,-0.784101069,0.407014281,9.373299599
7269.867192820,-0.009587379,-0.020240022,-0.007456850,-0.791283667,0.392649084,9.398438454
7269.869316997,-0.005326321,-0.001065264,-0.001065264,-0.791283667,0.392649084,9.398438454
7269.871259259,-0.004261057,-0.013848436,-0.008522115,-0.796072066,0.415394008,9.300276756
7269.873337880,-0.010652643,-0.008522115,0.004261057,-0.796072066,0.415394008,9.300276756
7269.875341790,-0.008522115,-0.007456850,0.000000000,-0.796072066,0.415394008,9.300276756
7269.877393417,-0.012783172,-0.008522115,-0.006391586,-0.799663365,0.399831682,9.320627213
7269.879257908,-0.004261057,-0.011717907,0.001065264,-0.799663365,0.399831682,9.320627213
7269.881242924,-0.005326321,-0.007456850,0.006391586,-0.774524271,0.397437483,9.376891136
7269.883160389,-0.012783172,-0.017044229,0.012783172,-0.774524271,0.397437483,9.376891136
7269.885286261,-0.012783172,-0.020240022,-0.012783172,-0.774524271,0.397437483,9.376891136
7269.887221881,0.000000000,-0.012783172,-0.008522115,-0.787692368,0.405817181,9.321824074
7269.889269944,-0.007456850,-0.013848436,0.000000000,-0.787692368,0.405817181,9.321824074
7269.891270778,-0.004261057,-0.012783172,0.001065264,-0.782903969,0.397437483,9.364919662
7269.893119979,-0.001065264,-0.014913701,-0.002130529,-0.782903969,0.397437483,9.364919662
7269.895094954,-0.005326321,-0.006391586,0.005326321,-0.794874966,0.407014281,9.376891136
7269.897131232,-0.005326321,0.008522115,0.000000000,-0.794874966,0.407014281,9.376891136
7269.899247559,-0.006391586,-0.006391586,0.001065264,-0.794874966,0.407014281,9.376891136
7269.901182113,-0.003195793,-0.009587379,-0.002130529,-0.768538773,0.410605580,9.334992409
7269.903286785,0.001065264,-0.024501080,0.002130529,-0.768538773,0.410605580,9.334992409
7269.905297376,0.012783172,-0.013848436,0.004261057,-0.770932972,0.395043284,9.367314339
7269.907309734,0.007456850,-0.015978964,-0.006391586,-0.770932972,0.395043284,9.367314339
7269.909311092,-0.009587379,-0.006391586,-0.006391586,-0.770932972,0.395043284,9.367314339
7269.911314193,-0.007456850,-0.002130529,0.018109493,-0.772130072,0.396240383,9.303867340
7269.913269114,-0.007456850,-0.004261057,0.005326321,-0.772130072,0.396240383,9.303867340
7269.915319252,-0.011717907,-0.006391586,-0.005326321,-0.800860465,0.397437483,9.349357605
7269.917247784,-0.013848436,-0.012783172,0.005326321,-0.800860465,0.397437483,9.349357605
7269.918969074,-0.002130529,-0.020240022,-0.004261057,-0.800860465,0.397437483,9.349357605
7269.921244812,0.000000000,-0.005326321,0.000000000,-0.778115571,0.390254885,9.390059471
7269.923242054,-0.008522115,-0.002130529,0.001065264,-0.778115571,0.390254885,9.390059471
7269.925244332,-0.007456850,-0.003195793,-0.009587379,-0.781706870,0.415394008,9.327810287
7269.927419076,-0.009587379,0.002130529,-0.008522115,-0.781706870,0.415394008,9.327810287
7269.929133537,-0.005326321,-0.002130529,-0.001065264,-0.781706870,0.415394008,9.327810287
7269.931392656,-0.014913701,-0.006391586,0.009587379,-0.790086567,0.403422982,9.333795547
7269.933108839,-0.007456850,-0.005326321,-0.004261057,-0.790086567,0.403422982,9.333795547
7269.935298591,0.009587379,-0.015978964,-0.002130529,-0.788889468,0.411802679,9.364919662
7269.937212064,-0.005326321,-0.008522115,-0.006391586,-0.788889468,0.411802679,9.364919662
7269.939015014,-0.010652643,-0.004261057,0.000000000,-0.788889468,0.411802679,9.364919662
7269.941003264,-0.008522115,0.001065264,0.003195793,-0.812831461,0.418985307,9.272743225
7269.943001343,-0.004261057,-0.022370551,-0.011717907,-0.812831461,0.418985307,9.272743225
7269.944991104,-0.010652643,-0.008522115,-0.001065264,-0.820014060,0.407014281,9.320627213
7269.947245005,0.009587379,-0.019174758,-0.006391586,-0.820014060,0.407014281,9.320627213
7269.949168641,-0.010652643,-0.004261057,-0.007456850,-0.820014060,0.407014281,9.320627213
7269.951196561,0.006391586,-0.011717907,-0.005326321,-0.796072066,0.380678058,9.409213066
7269.953221660,0.001065264,-0.020240022,-0.005326321,-0.796072066,0.380678058,9.409213066
7269.955020262,0.001065264,-0.008522115,0.011717907,-0.782903969,0.418985307,9.324218750
7269.957064023,-0.011717907,-0.007456850,-0.001065264,-0.782903969,0.418985307,9.324218750
7269.959367022,-0.006391586,-0.006391586,0.010652643,-0.782903969,0.418985307,9.324218750
7269.961065189,0.002130529,-0.012783172,-0.007456850,-0.763750315,0.408211380,9.336189270
7269.963055135,0.003195793,-0.001065264,0.002130529,-0.763750315,0.408211380,9.336189270
7269.965288918,-0.002130529,-0.005326321,0.000000000,-0.794874966,0.402225882,9.314641953
7269.967217360,-0.001065264,-0.010652643,-0.005326321,-0.794874966,0.402225882,9.314641953
7269.969230202,0.005326321,-0.012783172,-0.001065264,-0.794874966,0.402225882,9.314641953
7269.971284122,0.005326321,-0.011717907,-0.003195793,-0.791283667,0.412999779,9.325415611
7269.973175365,-0.005326321,-0.004261057,-0.004261057,-0.791283667,0.412999779,9.325415611
7269.975266367,-0.007456850,-0.007456850,0.004261057,-0.797269166,0.405817181,9.340977669
7269.977483147,-0.007456850,-0.007456850,0.004261057,-0.797269166,0.405817181,9.340977669
7269.979323461,-0.013848436,-0.001065264,0.007456850,-0.797269166,0.405817181,9.340977669
7269.981225331,0.004261057,-0.022370551,-0.001065264,-0.760159016,0.423773706,9.339780807
7269.983231164,-0.005326321,-0.002130529,0.000000000,-0.760159016,0.423773706,9.339780807
7269.985098356,0.001065264,-0.002130529,-0.010652643,-0.788889468,0.426167905,9.346963882
7269.987057759,0.001065264,-0.008522115,-0.002130529,-0.788889468,0.426167905,9.346963882
7269.989265401,-0.010652643,-0.006391586,-0.004261057,-0.788889468,0.426167905,9.346963882
7269.991297512,-0.003195793,-0.009587379,-0.005326321,-0.788889468,0.415394008,9.348160744
7269.993291984,-0.019174758,0.000000000,-0.001065264,-0.788889468,0.415394008,9.348160744
7269.995304298,-0.008522115,-0.017044229,0.003195793,-0.793677866,0.397437483,9.323021889
7269.997274596,0.005326321,-0.007456850,-0.013848436,-0.793677866,0.397437483,9.323021889
7269.999281792,-0.006391586,-0.009587379,0.006391586,-0.793677866,0.397437483,9.323021889
7270.001034696,-0.003195793,-0.010652643,-0.001065264,-0.776918471,0.412999779,9.326612473
7270.003126768,0.003195793,-0.009587379,0.001065264,-0.776918471,0.412999779,9.326612473
7270.005138919,-0.002130529,-0.021305285,-0.011717907,-0.794874966,0.384269387,9.366117477
7270.007108878,-0.004261057,-0.006391586,0.005326321,-0.794874966,0.384269387,9.366117477
7270.009124995,-0.002130529,-0.014913701,0.001065264,-0.794874966,0.384269387,9.366117477
7270.011318217,0.004261057,-0.019174758,-0.006391586,-0.782903969,0.402225882,9.351752281
7270.013078434,-0.002130529,-0.001065264,0.000000000,-0.782903969,0.402225882,9.351752281
7270.015233704,-0.004261057,-0.012783172,-0.009587379,-0.779312670,0.417788208,9.362525940
7270.017170196,0.000000000,0.005326321,0.001065264,-0.779312670,0.417788208,9.362525940
7270.019268736,0.003195793,-0.008522115,-0.002130529,-0.779312670,0.417788208,9.362525940
7270.021246646,-0.002130529,-0.005326321,-0.008522115,-0.790086567,0.407014281,9.382876396
7270.023254734,-0.007456850,-0.006391586,-0.013848436,-0.790086567,0.407014281,9.382876396
7270.025388361,-0.002130529,0.001065264,-0.001065264,-0.812831461,0.393846184,9.344569206
7270.027260223,-0.002130529,0.001065264,-0.001065264,-0.812831461,0.393846184,9.344569206
7270.029225672,0.005326321,0.000000000,-0.007456850,-0.812831461,0.393846184,9.344569206
7270.031203600,0.005326321,-0.003195793,0.007456850,-0.773327172,0.408211380,9.342175484
7270.033233145,0.000000000,-0.011717907,0.005326321,-0.773327172,0.408211380,9.342175484
7270.035285569,-0.004261057,-0.009587379,0.007456850,-0.756567717,0.414196908,9.398438454
7270.037211834,-0.004261057,-0.002130529,-0.005326321,-0.756567717,0.414196908,9.398438454
7270.039272529,-0.008522115,-0.007456850,0.007456850,-0.756567717,0.414196908,9.398438454
7270.041210429,-0.005326321,-0.007456850,0.006391586,-0.763750315,0.409408480,9.320627213
7270.043305650,-0.007456850,-0.012783172,-0.005326321,-0.763750315,0.409408480,9.320627213
7270.045308534,-0.001065264,-0.009587379,-0.008522115,-0.769735873,0.412999779,9.349357605
7270.047276782,0.003195793,-0.006391586,-0.008522115,-0.769735873,0.412999779,9.349357605
7270.049230546,-0.003195793,-0.003195793,-0.006391586,-0.804451764,0.396240383,9.356540680
7270.051205131,-0.010652643,-0.006391586,0.000000000,-0.804451764,0.396240383,9.356540680
7270.053244521,-0.009587379,-0.011717907,-0.001065264,-0.804451764,0.396240383,9.356540680
7270.054979064,-0.003195793,0.003195793,-0.001065264,-0.809240162,0.390254885,9.309853554
7270.056986227,-0.002130529,-0.004261057,-0.003195793,-0.809240162,0.390254885,9.309853554
7270.059125604,-0.003195793,-0.015978964,-0.002130529,-0.781706870,0.408211380,9.396044731
7270.061012056,-0.010652643,-0.007456850,0.000000000,-0.781706870,0.408211380,9.396044731
7270.063016772,-0.003195793,-0.002130529,-0.001065264,-0.781706870,0.408211380,9.396044731
7270.065215635,-0.005326321,-0.007456850,0.009587379,-0.786495268,0.415394008,9.346963882
7270.067183213,-0.010652643,0.000000000,-0.001065264,-0.786495268,0.415394008,9.346963882
7270.069237588,0.000000000,0.001065264,-0.001065264,-0.788889468,0.420182407,9.319430351
7270.071249926,-0.002130529,-0.008522115,0.002130529,-0.788889468,0.420182407,9.319430351
7270.073236527,-0.003195793,-0.017044229,-0.003195793,-0.788889468,0.420182407,9.319430351
7270.075264130,0.007456850,-0.003195793,-0.003195793,-0.793677866,0.404620081,9.387664795
7270.077381858,-0.003195793,-0.004261057,-0.020240022,-0.793677866,0.404620081,9.387664795
7270.079060809,-0.002130529,-0.008522115,0.000000000,-0.797269166,0.384269387,9.317035675
7270.080969911,-0.004261057,-0.002130529,-0.003195793,-0.797269166,0.384269387,9.317035675
7270.083241248,-0.002130529,-0.010652643,-0.014913701,-0.797269166,0.384269387,9.317035675
7270.085053749,-0.021305285,-0.003195793,-0.006391586,-0.810437262,0.428562105,9.314641953
7270.087147402,0.002130529,-0.014913701,-0.003195793,-0.810437262,0.428562105,9.314641953
7270.089210430,0.000000000,-0.011717907,-0.002130529,-0.776918471,0.389057785,9.366117477
7270.091212173,-0.008522115,-0.007456850,0.002130529,-0.776918471,0.389057785,9.366117477
7270.093188066,0.001065264,-0.021305285,-0.007456850,-0.776918471,0.389057785,9.366117477
7270.095054244,-0.004261057,-0.015978964,0.000000000,-0.788889468,0.398634583,9.333795547
7270.097137230,-0.006391586,-0.011717907,-0.001065264,-0.788889468,0.398634583,9.333795547
7270.098760650,-0.008522115,-0.009587379,-0.002130529,-0.788889468,0.398634583,9.333795547
7270.101262471,0.010652643,-0.005326321,-0.004261057,-0.774524271,0.401028782,9.372102737
7270.103170034,-0.008522115,-0.006391586,0.002130529,-0.774524271,0.401028782,9.372102737
7270.105229561,0.004261057,-0.006391586,-0.001065264,-0.790086567,0.415394008,9.342175484
7270.107230219,-0.012783172,-0.008522115,0.002130529,-0.790086567,0.415394008,9.342175484
7270.109238956,-0.001065264,-0.014913701,-0.005326321,-0.775721371,0.409408480,9.287108421
7270.111176732,-0.014913701,-0.001065264,-0.001065264,-0.775721371,0.409408480,9.287108421
7270.113179241,-0.002130529,0.004261057,-0.001065264,-0.775721371,0.409408480,9.287108421
7270.115226201,-0.001065264,-0.010652643,-0.001065264,-0.797269166,0.393846184,9.338583946
7270.117051752,0.004261057,-0.008522115,-0.002130529,-0.797269166,0.393846184,9.338583946
7270.119211280,0.011717907,-0.010652643,-0.017044229,-0.804451764,0.398634583,9.372102737
7270.121246015,-0.009587379,-0.010652643,-0.009587379,-0.804451764,0.398634583,9.372102737
7270.123261781,0.004261057,-0.006391586,-0.001065264,-0.804451764,0.398634583,9.372102737
7270.125277490,-0.002130529,-0.008522115,-0.003195793,-0.775721371,0.416591108,9.291896820
7270.127432564,0.000000000,-0.020240022,-0.003195793,-0.775721371,0.416591108,9.291896820
7270.129162323,-0.011717907,-0.003195793,-0.004261057,-0.775721371,0.416591108,9.291896820
7270.131235004,0.002130529,-0.005326321,-0.004261057,-0.811634362,0.399831682,9.391256332
7270.133225424,-0.004261057,-0.008522115,0.002130529,-0.811634362,0.399831682,9.391256332
7270.135314378,-0.007456850,-0.017044229,0.007456850,-0.797269166,0.409408480,9.346963882
7270.137252091,-0.006391586,-0.007456850,0.002130529,-0.797269166,0.409408480,9.346963882
7270.139149025,0.005326321,-0.003195793,-0.013848436,-0.775721371,0.412999779,9.323021889
7270.141209572,-0.005326321,-0.006391586,0.006391586,-0.775721371,0.412999779,9.323021889
7270.143188355,0.002130529,0.002130529,-0.003195793,-0.775721371,0.412999779,9.323021889
7270.145223706,-0.002130529,-0.014913701,-0.005326321,-0.830788016,0.402225882,9.332598686
7270.147187664,-0.005326321,-0.008522115,-0.006391586,-0.830788016,0.402225882,9.332598686
7270.149175576,-0.002130529,-0.005326321,0.007456850,-0.796072066,0.420182407,9.306262016
7270.151278995,0.006391586,-0.021305285,-0.005326321,-0.796072066,0.420182407,9.306262016
7270.153276318,0.001065264,0.001065264,-0.002130529,-0.796072066,0.420182407,9.306262016
7270.155300257,-0.006391586,-0.025566343,0.001065264,-0.788889468,0.403422982,9.355342865
7270.157237866,-0.011717907,-0.002130529,0.000000000,-0.788889468,0.403422982,9.355342865
7270.159212015,-0.001065264,-0.013848436,-0.010652643,-0.800860465,0.411802679,9.381679535
7270.161201643,-0.007456850,-0.009587379,-0.013848436,-0.800860465,0.411802679,9.381679535
7270.163189957,-0.002130529,-0.019174758,-0.020240022,-0.800860465,0.411802679,9.381679535
7270.165185463,0.007456850,-0.009587379,0.007456850,-0.769735873,0.410605580,9.311050415
7270.167018865,0.008522115,-0.011717907,-0.004261057,-0.769735873,0.410605580,9.311050415
7270.169194297,0.007456850,-0.014913701,-0.003195793,-0.790086567,0.398634583,9.367314339
7270.171253584,-0.010652643,-0.006391586,0.001065264,-0.790086567,0.398634583,9.367314339
7270.173253160,-0.004261057,-0.007456850,-0.003195793,-0.790086567,0.398634583,9.367314339
7270.175138448,-0.005326321,-0.009587379,-0.008522115,-0.778115571,0.387860686,9.362525940
7270.177152680,-0.004261057,-0.007456850,0.003195793,-0.778115571,0.387860686,9.362525940
7270.179026836,-0.007456850,-0.001065264,0.004261057,-0.798466265,0.403422982,9.308655739
7270.181281907,-0.011717907,-0.001065264,-0.001065264,-0.798466265,0.403422982,9.308655739
7270.182934046,-0.010652643,-0.008522115,-0.008522115,-0.798466265,0.403422982,9.308655739
7270.185256243,0.001065264,-0.006391586,0.002130529,-0.799663365,0.392649084,9.352949142
7270.186866229,-0.002130529,0.007456850,0.003195793,-0.799663365,0.392649084,9.352949142
7270.188931746,-0.006391586,-0.010652643,-0.001065264,-0.792480767,0.375889659,9.381679535
7270.191138539,-0.005326321,0.003195793,0.003195793,-0.792480767,0.375889659,9.381679535
7270.193120081,-0.007456850,0.006391586,-0.003195793,-0.792480767,0.375889659,9.381679535
7270.195109390,-0.014913701,-0.002130529,-0.004261057,-0.780509770,0.399831682,9.348160744
7270.197111670,-0.013848436,0.001065264,0.017044229,-0.780509770,0.399831682,9.348160744
7270.199059959,-0.003195793,-0.007456850,-0.012783172,-0.772130072,0.391451985,9.388861656
7270.201076415,0.008522115,-0.012783172,-0.017044229,-0.772130072,0.391451985,9.388861656
7270.202981098,-0.010652643,-0.008522115,-0.009587379,-0.788889468,0.381875157,9.313444138
7270.205236372,-0.004261057,-0.007456850,0.003195793,-0.788889468,0.381875157,9.313444138
7270.207149036,0.006391586,-0.012783172,-0.004261057,-0.788889468,0.381875157,9.313444138
7270.208984955,-0.009587379,-0.005326321,-0.004261057,-0.796072066,0.407014281,9.331400871
7270.211191185,0.004261057,-0.010652643,-0.005326321,-0.796072066,0.407014281,9.331400871
7270.213049540,0.007456850,-0.006391586,0.005326321,-0.772130072,0.408211380,9.393650055
7270.215328408,-0.004261057,0.001065264,0.005326321,-0.772130072,0.408211380,9.393650055
7270.217107350,-0.010652643,-0.012783172,0.000000000,-0.772130072,0.408211380,9.393650055
7270.219052200,-0.010652643,-0.002130529,0.009587379,-0.779312670,0.410605580,9.272743225
7270.221226448,0.006391586,-0.009587379,-0.003195793,-0.779312670,0.410605580,9.272743225
7270.223237490,0.003195793,-0.008522115,0.003195793,-0.788889468,0.429759204,9.331400871
7270.225245345,0.003195793,0.006391586,0.004261057,-0.788889468,0.429759204,9.331400871
7270.227196676,-0.009587379,0.001065264,-0.009587379,-0.788889468,0.429759204,9.331400871
7270.229234778,-0.002130529,-0.002130529,0.004261057,-0.784101069,0.399831682,9.367314339
7270.231077826,-0.017044229,-0.021305285,0.002130529,-0.784101069,0.399831682,9.367314339
7270.233110460,-0.004261057,0.001065264,0.006391586,-0.793677866,0.412999779,9.309853554
7270.235186508,-0.011717907,-0.007456850,-0.011717907,-0.793677866,0.412999779,9.309853554
7270.237196336,-0.008522115,-0.008522115,0.002130529,-0.793677866,0.412999779,9.309853554
7270.239195707,-0.003195793,-0.012783172,-0.001065264,-0.763750315,0.381875157,9.334992409
7270.241044600,-0.006391586,-0.004261057,-0.003195793,-0.763750315,0.381875157,9.334992409
7270.243225534,0.007456850,-0.015978964,-0.001065264,-0.805648863,0.408211380,9.379284859
7270.245221263,-0.002130529,-0.011717907,-0.004261057,-0.805648863,0.408211380,9.379284859
7270.246983098,-0.002130529,-0.017044229,-0.008522115,-0.805648863,0.408211380,9.379284859
7270.249216677,-0.009587379,-0.007456850,0.001065264,-0.788889468,0.415394008,9.300276756
7270.251065210,0.001065264,-0.011717907,-0.004261057,-0.788889468,0.415394008,9.300276756
7270.253050429,0.000000000,-0.005326321,-0.004261057,-0.808043063,0.389057785,9.331400871
7270.255017722,0.010652643,-0.010652643,0.017044229,-0.808043063,0.389057785,9.331400871
7270.257072016,0.000000000,-0.010652643,-0.008522115,-0.808043063,0.389057785,9.331400871
7270.258998434,0.009587379,-0.022370551,0.000000000,-0.793677866,0.393846184,9.352949142
7270.261005350,-0.009587379,-0.009587379,-0.002130529,-0.793677866,0.393846184,9.352949142
7270.263048121,-0.002130529,-0.022370551,-0.009587379,-0.782903969,0.386663586,9.296685219
7270.265270738,-0.010652643,-0.014913701,-0.002130529,-0.782903969,0.386663586,9.296685219
7270.267236237,-0.003195793,-0.005326321,-0.017044229,-0.782903969,0.386663586,9.296685219
7270.269218170,-0.005326321,-0.009587379,-0.002130529,-0.796072066,0.401028782,9.339780807
7270.271225388,-0.005326321,-0.006391586,-0.011717907,-0.796072066,0.401028782,9.339780807
7270.273075917,0.002130529,-0.014913701,-0.008522115,-0.781706870,0.407014281,9.356540680
7270.275041971,-0.002130529,-0.012783172,0.003195793,-0.781706870,0.407014281,9.356540680
7270.277186411,-0.007456850,-0.010652643,-0.004261057,-0.781706870,0.407014281,9.356540680
7270.278997908,-0.006391586,-0.003195793,0.001065264,-0.760159016,0.414196908,9.317035675
7270.281007479,0.000000000,-0.008522115,-0.011717907,-0.760159016,0.414196908,9.317035675
7270.283155438,-0.008522115,-0.002130529,0.018109493,-0.802057564,0.386663586,9.358934402
7270.285244839,0.001065264,-0.006391586,-0.005326321,-0.802057564,0.386663586,9.358934402
7270.287214361,-0.004261057,-0.007456850,0.009587379,-0.802057564,0.386663586,9.358934402
7270.289221693,0.004261057,-0.003195793,-0.002130529,-0.784101069,0.395043284,9.327810287
7270.291220665,-0.015978964,-0.019174758,0.003195793,-0.784101069,0.395043284,9.327810287
7270.293211892,0.006391586,-0.011717907,-0.008522115,-0.790086567,0.416591108,9.324218750
7270.295195123,-0.001065264,-0.020240022,0.003195793,-0.790086567,0.416591108,9.324218750
7270.297251080,-0.001065264,-0.004261057,-0.007456850,-0.790086567,0.416591108,9.324218750
7270.299236296,0.003195793,-0.008522115,-0.005326321,-0.767341673,0.401028782,9.358934402
7270.301212499,-0.007456850,-0.014913701,0.000000000,-0.767341673,0.401028782,9.358934402
7270.303221551,0.004261057,0.002130529,0.003195793,-0.760159016,0.421379507,9.326612473
7270.304996545,-0.007456850,-0.006391586,-0.003195793,-0.760159016,0.421379507,9.326612473
7270.307189981,-0.012783172,0.003195793,0.003195793,-0.760159016,0.421379507,9.326612473
7270.309003403,0.001065264,-0.005326321,-0.001065264,-0.816422760,0.399831682,9.366117477
7270.310866388,-0.007456850,-0.011717907,-0.009587379,-0.816422760,0.399831682,9.366117477
7270.312980094,-0.001065264,-0.011717907,-0.008522115,-0.803254664,0.390254885,9.336189270
7270.314517859,-0.006391586,-0.006391586,-0.012783172,-0.803254664,0.390254885,9.336189270
7270.316948269,0.008522115,-0.009587379,0.000000000,-0.803254664,0.390254885,9.336189270
7270.318924389,-0.003195793,-0.015978964,-0.002130529,-0.786495268,0.393846184,9.307458878
7270.321036652,0.001065264,-0.011717907,-0.002130529,-0.786495268,0.393846184,9.307458878
7270.322880509,-0.009587379,0.002130529,0.003195793,-0.770932972,0.415394008,9.357737541
7270.325238274,-0.002130529,-0.009587379,-0.013848436,-0.770932972,0.415394008,9.357737541
7270.327477944,0.005326321,0.000000000,-0.009587379,-0.770932972,0.415394008,9.357737541
7270.329256989,0.003195793,-0.008522115,-0.007456850,-0.772130072,0.414196908,9.346963882
7270.330963289,0.003195793,-0.009587379,-0.005326321,-0.772130072,0.414196908,9.346963882
7270.333246819,0.001065264,-0.013848436,-0.009587379,-0.811634362,0.401028782,9.339780807
7270.335111950,0.004261057,-0.018109493,-0.001065264,-0.811634362,0.401028782,9.339780807
7270.337117484,0.007456850,-0.008522115,-0.007456850,-0.811634362,0.401028782,9.339780807
7270.339197970,0.002130529,-0.011717907,-0.004261057,-0.764947414,0.384269387,9.342175484
7270.341136963,-0.011717907,-0.002130529,0.010652643,-0.764947414,0.384269387,9.342175484
7270.342943281,-0.009587379,-0.005326321,0.005326321,-0.764947414,0.384269387,9.342175484
7270.345234261,-0.006391586,-0.002130529,0.001065264,-0.804451764,0.397437483,9.307458878
7270.347278063,-0.004261057,-0.008522115,0.005326321,-0.804451764,0.397437483,9.307458878
7270.348963597,0.000000000,-0.015978964,-0.008522115,-0.793677866,0.402225882,9.296685219
7270.351234241,-0.002130529,-0.018109493,-0.003195793,-0.793677866,0.402225882,9.296685219
7270.353054549,0.001065264,-0.020240022,-0.006391586,-0.796072066,0.417788208,9.384073257
7270.355074311,-0.012783172,-0.012783172,-0.005326321,-0.796072066,0.417788208,9.384073257
7270.357086582,-0.003195793,0.001065264,0.004261057,-0.806845963,0.392649084,9.313444138
7270.359206920,-0.026631609,-0.005326321,0.001065264,-0.806845963,0.392649084,9.313444138
7270.361142777,-0.005326321,-0.009587379,-0.018109493,-0.806845963,0.392649084,9.313444138
7270.363270491,-0.006391586,-0.013848436,-0.001065264,-0.779312670,0.399831682,9.345766068
7270.365223168,-0.003195793,-0.010652643,-0.009587379,-0.779312670,0.399831682,9.345766068
7270.366998369,-0.009587379,-0.007456850,-0.001065264,-0.769735873,0.396240383,9.363722801
7270.369047723,0.000000000,-0.005326321,-0.017044229,-0.769735873,0.396240383,9.363722801
7270.370986315,-0.002130529,-0.009587379,-0.010652643,-0.769735873,0.396240383,9.363722801
7270.373261513,-0.002130529,0.000000000,-0.003195793,-0.784101069,0.407014281,9.282320023
7270.375182654,0.004261057,-0.014913701,0.004261057,-0.784101069,0.407014281,9.282320023
7270.377264967,0.003195793,-0.002130529,-0.002130529,-0.784101069,0.407014281,9.282320023
7270.379189406,0.000000000,-0.011717907,-0.007456850,-0.804451764,0.428562105,9.354146004
7270.381140607,-0.002130529,-0.005326321,-0.001065264,-0.804451764,0.428562105,9.354146004
7270.383035780,0.002130529,-0.009587379,0.002130529,-0.787692368,0.417788208,9.344569206
7270.385101031,-0.007456850,-0.017044229,-0.011717907,-0.787692368,0.417788208,9.344569206
7270.387038723,-0.007456850,-0.014913701,-0.003195793,-0.775721371,0.396240383,9.319430351
7270.389002056,-0.002130529,-0.006391586,0.003195793,-0.775721371,0.396240383,9.319430351
7270.390907342,0.001065264,0.002130529,-0.002130529,-0.775721371,0.396240383,9.319430351
7270.392897164,-0.009587379,-0.009587379,-0.001065264,-0.778115571,0.402225882,9.399636269
7270.395245743,0.005326321,-0.006391586,0.000000000,-0.778115571,0.402225882,9.399636269
7270.396988671,0.007456850,-0.013848436,-0.004261057,-0.750582218,0.402225882,9.368511200
7270.399295676,-0.014913701,-0.005326321,0.009587379,-0.750582218,0.402225882,9.368511200
7270.401125822,0.002130529,0.003195793,-0.003195793,-0.750582218,0.402225882,9.368511200
7270.403223205,0.005326321,0.000000000,-0.003195793,-0.757764816,0.396240383,9.283516884
7270.405245673,-0.003195793,-0.011717907,-0.001065264,-0.757764816,0.396240383,9.283516884
7270.406959624,-0.008522115,-0.004261057,-0.001065264,-0.800860465,0.402225882,9.375694275
7270.409233147,0.002130529,0.000000000,-0.002130529,-0.800860465,0.402225882,9.375694275
7270.411116936,-0.006391586,-0.008522115,0.006391586,-0.800860465,0.402225882,9.375694275
7270.413142187,-0.005326321,-0.002130529,-0.005326321,-0.811634362,0.404620081,9.334992409
7270.415234813,0.001065264,-0.011717907,-0.005326321,-0.811634362,0.404620081,9.334992409
7270.417211559,-0.005326321,-0.006391586,-0.001065264,-0.766144514,0.401028782,9.332598686
7270.419220133,-0.002130529,-0.018109493,-0.002130529,-0.766144514,0.401028782,9.332598686
7270.421161973,-0.012783172,-0.005326321,-0.001065264,-0.766144514,0.401028782,9.332598686
7270.423229253,0.005326321,-0.010652643,0.000000000,-0.775721371,0.415394008,9.405621529
7270.425242725,-0.001065264,-0.004261057,-0.005326321,-0.775721371,0.415394008,9.405621529
7270.427362235,-0.009587379,0.006391586,-0.006391586,-0.775721371,0.415394008,9.405621529
7270.429235226,-0.006391586,-0.009587379,-0.003195793,-0.772130072,0.399831682,9.306262016
7270.431193861,0.004261057,-0.007456850,0.005326321,-0.772130072,0.399831682,9.306262016
7270.432795917,-0.005326321,-0.004261057,-0.003195793,-0.766144514,0.403422982,9.317035675
7270.434811237,-0.008522115,-0.005326321,0.003195793,-0.766144514,0.403422982,9.317035675
7270.436446264,-0.004261057,-0.006391586,-0.007456850,-0.788889468,0.392649084,9.333795547
7270.438899065,-0.001065264,-0.006391586,0.005326321,-0.788889468,0.392649084,9.333795547
7270.440938504,0.005326321,-0.012783172,-0.008522115,-0.788889468,0.392649084,9.333795547
7270.442497470,-0.005326321,0.004261057,0.003195793,-0.770932972,0.420182407,9.287108421
7270.444629772,0.000000000,-0.013848436,-0.010652643,-0.770932972,0.420182407,9.287108421
7270.446495815,-0.009587379,-0.014913701,0.000000000,-0.770932972,0.429759204,9.396044731
7270.448411284,0.004261057,-0.002130529,-0.011717907,-0.770932972,0.429759204,9.396044731
7270.450924137,0.000000000,-0.002130529,0.007456850,-0.770932972,0.429759204,9.396044731
7270.452639822,-0.001065264,0.002130529,-0.007456850,-0.822408259,0.412999779,9.345766068
7270.454863245,0.001065264,-0.008522115,-0.005326321,-0.822408259,0.412999779,9.345766068
7270.456626578,0.003195793,-0.014913701,0.003195793,-0.808043063,0.398634583,9.300276756
7270.458599910,0.003195793,-0.005326321,-0.006391586,-0.808043063,0.398634583,9.300276756
7270.460678344,-0.009587379,0.000000000,0.002130529,-0.808043063,0.398634583,9.300276756
7270.462509831,-0.008522115,-0.008522115,-0.008522115,-0.780509770,0.385466486,9.366117477
7270.464878242,-0.013848436,0.005326321,-0.011717907,-0.780509770,0.385466486,9.366117477
7270.466749932,0.000000000,-0.009587379,-0.001065264,-0.779312670,0.407014281,9.346963882
7270.468773251,-0.009587379,-0.015978964,0.011717907,-0.779312670,0.407014281,9.346963882
7270.470831378,-0.005326321,-0.007456850,-0.004261057,-0.779312670,0.407014281,9.346963882
7270.472839520,-0.010652643,-0.014913701,-0.003195793,-0.788889468,0.424970806,9.275136948
7270.474907418,-0.009587379,0.004261057,0.004261057,-0.788889468,0.424970806,9.275136948
7270.476803154,0.000000000,-0.003195793,0.004261057,-0.788889468,0.424970806,9.275136948
7270.478740257,-0.007456850,-0.004261057,-0.003195793,-0.776918471,0.404620081,9.397241592
7270.480398561,-0.009587379,-0.012783172,-0.007456850,-0.776918471,0.404620081,9.397241592
7270.482817834,0.001065264,-0.009587379,-0.002130529,-0.794874966,0.389057785,9.329007149
7270.484721206,0.003195793,-0.009587379,0.000000000,-0.794874966,0.389057785,9.329007149
7270.486635705,0.004261057,-0.006391586,-0.002130529,-0.799663365,0.383072257,9.325415611
7270.488609663,-0.001065264,0.003195793,0.000000000,-0.799663365,0.383072257,9.325415611
7270.490747293,-0.005326321,0.002130529,0.000000000,-0.799663365,0.383072257,9.325415611
7270.492821284,0.001065264,-0.007456850,-0.007456850,-0.802057564,0.389057785,9.376891136
7270.494567637,-0.007456850,-0.001065264,-0.005326321,-0.802057564,0.389057785,9.376891136
7270.496786998,-0.004261057,0.001065264,-0.006391586,-0.775721371,0.401028782,9.319430351
7270.498428694,-0.010652643,-0.008522115,-0.002130529,-0.775721371,0.401028782,9.319430351
7270.500809132,-0.003195793,0.002130529,-0.003195793,-0.775721371,0.401028782,9.319430351
7270.502803618,0.003195793,-0.008522115,-0.001065264,-0.772130072,0.415394008,9.308655739
7270.504538592,-0.005326321,-0.012783172,-0.007456850,-0.772130072,0.415394008,9.308655739
7270.506827570,0.010652643,-0.030892665,-0.005326321,-0.775721371,0.399831682,9.380482674
7270.508829690,-0.001065264,-0.004261057,0.007456850,-0.775721371,0.399831682,9.380482674
7270.510834792,-0.004261057,-0.015978964,0.007456850,-0.768538773,0.403422982,9.299078941
7270.512555964,-0.007456850,-0.005326321,-0.007456850,-0.768538773,0.403422982,9.299078941
7270.514852660,-0.005326321,-0.006391586,-0.001065264,-0.768538773,0.403422982,9.299078941
7270.516484129,-0.001065264,-0.002130529,-0.002130529,-0.794874966,0.396240383,9.339780807
7270.518819796,0.005326321,-0.013848436,-0.009587379,-0.794874966,0.396240383,9.339780807
7270.520792706,-0.014913701,-0.007456850,0.005326321,-0.816422760,0.428562105,9.345766068
7270.522833213,-0.001065264,-0.001065264,-0.006391586,-0.816422760,0.428562105,9.345766068
7270.524841664,-0.002130529,-0.022370551,-0.012783172,-0.816422760,0.428562105,9.345766068
7270.526882795,-0.007456850,-0.003195793,0.000000000,-0.785298169,0.418985307,9.281123161
7270.528820766,-0.003195793,-0.014913701,-0.007456850,-0.785298169,0.418985307,9.281123161
7270.530396556,0.008522115,0.000000000,-0.009587379,-0.781706870,0.408211380,9.349357605
7270.532514029,-0.001065264,-0.007456850,-0.004261057,-0.781706870,0.408211380,9.349357605
7270.534509832,-0.010652643,-0.013848436,-0.001065264,-0.781706870,0.408211380,9.349357605
7270.536761250,-0.006391586,-0.009587379,-0.014913701,-0.798466265,0.408211380,9.344569206
7270.538829193,-0.009587379,0.000000000,-0.005326321,-0.798466265,0.408211380,9.344569206
7270.540825173,0.004261057,-0.011717907,-0.005326321,-0.788889468,0.415394008,9.324218750
7270.542828461,0.002130529,-0.008522115,-0.009587379,-0.788889468,0.415394008,9.324218750
7270.544866582,-0.007456850,-0.005326321,0.003195793,-0.788889468,0.415394008,9.324218750
7270.546399156,-0.003195793,-0.017044229,-0.007456850,-0.791283667,0.398634583,9.387664795
7270.548546732,0.004261057,-0.019174758,-0.005326321,-0.791283667,0.398634583,9.387664795
7270.550480893,-0.003195793,-0.009587379,-0.002130529,-0.775721371,0.404620081,9.355342865
7270.552514049,-0.008522115,-0.006391586,-0.006391586,-0.775721371,0.404620081,9.355342865
7270.554579721,0.000000000,-0.015978964,0.005326321,-0.775721371,0.404620081,9.355342865
7270.556551574,-0.001065264,-0.007456850,-0.004261057,-0.785298169,0.402225882,9.289502144
7270.558791207,0.008522115,-0.014913701,-0.008522115,-0.785298169,0.402225882,9.289502144
7270.560575024,0.002130529,-0.011717907,-0.011717907,-0.804451764,0.386663586,9.400833130
7270.562602925,0.006391586,-0.026631609,-0.010652643,-0.804451764,0.386663586,9.400833130
7270.564641234,-0.006391586,-0.021305285,-0.014913701,-0.804451764,0.386663586,9.400833130
7270.566460867,-0.007456850,-0.015978964,-0.017044229,-0.806845963,0.396240383,9.321824074
7270.568670705,0.006391586,-0.007456850,-0.001065264,-0.806845963,0.396240383,9.321824074
7270.570793575,-0.009587379,-0.017044229,-0.005326321,-0.782903969,0.405817181,9.324218750
7270.572579735,-0.008522115,-0.018109493,-0.005326321,-0.782903969,0.405817181,9.324218750
7270.574799734,-0.009587379,0.004261057,-0.004261057,-0.782903969,0.405817181,9.324218750
7270.576802215,-0.002130529,0.005326321,0.003195793,-0.773327172,0.407014281,9.351752281
7270.578791178,0.001065264,-0.002130529,-0.009587379,-0.773327172,0.407014281,9.351752281
7270.580606248,-0.006391586,-0.009587379,-0.005326321,-0.814028561,0.434547603,9.324218750
7270.582456681,-0.010652643,-0.004261057,-0.006391586,-0.814028561,0.434547603,9.324218750
7270.584411287,-0.003195793,-0.009587379,-0.002130529,-0.814028561,0.434547603,9.324218750
7270.586524212,-0.002130529,-0.007456850,-0.002130529,-0.804451764,0.402225882,9.348160744
7270.588490481,0.003195793,-0.013848436,-0.009587379,-0.804451764,0.402225882,9.348160744
7270.590385414,0.004261057,-0.001065264,-0.002130529,-0.793677866,0.387860686,9.320627213
7270.592431237,0.001065264,0.005326321,-0.001065264,-0.793677866,0.387860686,9.320627213
7270.594354519,-0.006391586,-0.013848436,-0.020240022,-0.793677866,0.387860686,9.320627213
7270.596479397,-0.002130529,-0.009587379,0.008522115,-0.781706870,0.418985307,9.339780807
7270.598391875,-0.001065264,-0.001065264,-0.010652643,-0.781706870,0.418985307,9.339780807
7270.600460150,-0.002130529,-0.009587379,0.002130529,-0.796072066,0.408211380,9.392453194
7270.602475838,-0.003195793,-0.012783172,-0.001065264,-0.796072066,0.408211380,9.392453194
7270.604502347,-0.007456850,-0.008522115,-0.019174758,-0.796072066,0.408211380,9.392453194
7270.606849904,-0.007456850,-0.010652643,-0.011717907,-0.806845963,0.418985307,9.340977669
7270.608604003,-0.005326321,-0.010652643,-0.002130529,-0.806845963,0.418985307,9.340977669
7270.610774294,0.000000000,0.001065264,0.010652643,-0.798466265,0.393846184,9.309853554
7270.612550561,0.005326321,-0.018109493,-0.017044229,-0.798466265,0.393846184,9.309853554
7270.614830581,0.002130529,-0.004261057,-0.013848436,-0.798466265,0.393846184,9.309853554
7270.616790556,-0.002130529,-0.009587379,0.004261057,-0.776918471,0.389057785,9.387664795
7270.618709620,0.002130529,-0.008522115,0.001065264,-0.776918471,0.389057785,9.387664795
7270.620563908,-0.005326321,-0.006391586,-0.001065264,-0.782903969,0.399831682,9.330204010
7270.622443300,-0.007456850,-0.004261057,-0.001065264,-0.782903969,0.399831682,9.330204010
7270.624870039,0.002130529,-0.006391586,-0.001065264,-0.782903969,0.399831682,9.330204010
7270.626838888,-0.001065264,-0.014913701,-0.005326321,-0.791283667,0.430956304,9.325415611
7270.628478788,-0.014913701,-0.003195793,-0.002130529,-0.791283667,0.430956304,9.325415611
7270.630582330,-0.005326321,-0.007456850,-0.017044229,-0.791283667,0.430956304,9.325415611
7270.632809604,0.002130529,-0.014913701,-0.007456850,-0.784101069,0.392649084,9.391256332
7270.634812123,0.004261057,-0.010652643,-0.006391586,-0.784101069,0.392649084,9.391256332
7270.636768815,-0.003195793,-0.004261057,-0.004261057,-0.770932972,0.367509961,9.325415611
7270.638437471,-0.018109493,-0.004261057,0.005326321,-0.770932972,0.367509961,9.325415611
7270.640441038,-0.018109493,-0.001065264,0.013848436,-0.782903969,0.386663586,9.320627213
7270.642603478,-0.011717907,-0.019174758,0.001065264,-0.782903969,0.386663586,9.320627213
7270.644707789,-0.004261057,-0.002130529,-0.007456850,-0.782903969,0.386663586,9.320627213
7270.646547090,0.001065264,-0.003195793,-0.008522115,-0.758961916,0.378283858,9.378087997
7270.648536971,-0.009587379,0.000000000,0.003195793,-0.758961916,0.378283858,9.378087997
7270.650748876,0.002130529,-0.001065264,0.002130529,-0.774524271,0.395043284,9.329007149
7270.652888626,-0.007456850,-0.017044229,0.004261057,-0.774524271,0.395043284,9.329007149
7270.654884686,-0.002130529,-0.003195793,0.003195793,-0.774524271,0.395043284,9.329007149
7270.656751671,0.005326321,-0.014913701,-0.010652643,-0.802057564,0.415394008,9.344569206
7270.658436698,-0.008522115,-0.013848436,0.002130529,-0.802057564,0.415394008,9.344569206
7270.660764693,-0.008522115,-0.004261057,-0.013848436,-0.790086567,0.401028782,9.361329079
7270.662758355,-0.004261057,0.002130529,-0.012783172,-0.790086567,0.401028782,9.361329079
7270.664797098,-0.009587379,-0.011717907,0.000000000,-0.776918471,0.393846184,9.330204010
7270.666622561,-0.009587379,0.003195793,0.005326321,-0.776918471,0.393846184,9.330204010
7270.668878813,-0.012783172,-0.010652643,-0.006391586,-0.776918471,0.393846184,9.330204010
7270.670865361,-0.007456850,-0.007456850,-0.012783172,-0.818816960,0.414196908,9.379284859
7270.672834276,-0.008522115,-0.003195793,0.008522115,-0.818816960,0.414196908,9.379284859
7270.674888428,-0.011717907,-0.014913701,-0.002130529,-0.778115571,0.411802679,9.332598686
7270.676691055,0.010652643,-0.015978964,0.000000000,-0.778115571,0.411802679,9.332598686
7270.678457792,-0.004261057,-0.009587379,-0.013848436,-0.778115571,0.411802679,9.332598686
7270.680405875,-0.009587379,-0.002130529,0.003195793,-0.764947414,0.399831682,9.297882080
7270.682813106,0.000000000,-0.018109493,-0.002130529,-0.764947414,0.399831682,9.297882080
7270.684560592,-0.007456850,-0.010652643,0.007456850,-0.764947414,0.399831682,9.297882080
7270.686831155,-0.003195793,-0.012783172,-0.006391586,-0.787692368,0.416591108,9.415198326
7270.688863888,-0.012783172,0.000000000,-0.001065264,-0.787692368,0.416591108,9.415198326
7270.690842055,0.001065264,-0.015978964,0.002130529,-0.785298169,0.421379507,9.346963882
7270.692813884,-0.010652643,-0.005326321,0.002130529,-0.785298169,0.421379507,9.346963882
7270.694506646,-0.001065264,-0.012783172,-0.006391586,-0.788889468,0.389057785,9.257181168
7270.696514731,-0.001065264,-0.012783172,-0.006391586,-0.788889468,0.389057785,9.257181168
7270.698517601,-0.002130529,-0.012783172,0.010652643,-0.788889468,0.389057785,9.257181168
7270.700828365,-0.008522115,-0.015978964,-0.004261057,-0.775721371,0.378283858,9.392453194
7270.702560372,-0.011717907,-0.010652643,-0.001065264,-0.775721371,0.378283858,9.392453194
7270.704834494,0.002130529,-0.010652643,0.000000000,-0.764947414,0.416591108,9.330204010
7270.706811093,-0.020240022,-0.001065264,0.006391586,-0.764947414,0.416591108,9.330204010
7270.708828094,0.005326321,-0.020240022,0.003195793,-0.764947414,0.416591108,9.330204010
7270.710805582,-0.012783172,-0.009587379,0.003195793,-0.792480767,0.405817181,9.334992409
7270.712392913,-0.004261057,-0.015978964,0.008522115,-0.792480767,0.405817181,9.334992409
7270.714841816,-0.007456850,-0.002130529,0.012783172,-0.782903969,0.426167905,9.386467934
7270.716798641,-0.007456850,-0.003195793,-0.005326321,-0.782903969,0.426167905,9.386467934
7270.718778622,-0.002130529,-0.006391586,-0.004261057,-0.782903969,0.426167905,9.386467934
7270.720448147,-0.008522115,-0.010652643,0.005326321,-0.786495268,0.401028782,9.303867340
7270.722542433,0.004261057,-0.010652643,-0.003195793,-0.786495268,0.401028782,9.303867340
7270.724801328,-0.010652643,-0.009587379,-0.005326321,-0.764947414,0.385466486,9.314641953
7270.727076107,0.001065264,-0.001065264,-0.002130529,-0.764947414,0.385466486,9.314641953
7270.728794722,-0.012783172,-0.015978964,-0.015978964,-0.764947414,0.385466486,9.314641953
7270.730468894,0.007456850,-0.015978964,-0.017044229,-0.785298169,0.401028782,9.387664795
7270.732460233,0.007456850,-0.015978964,-0.017044229,-0.785298169,0.401028782,9.387664795
7270.734847008,-0.005326321,0.001065264,-0.003195793,-0.773327172,0.427365005,9.284713745
7270.736762038,-0.007456850,-0.010652643,-0.005326321,-0.773327172,0.427365005,9.284713745
7270.738584691,-0.006391586,-0.003195793,0.008522115,-0.773327172,0.427365005,9.284713745
7270.740704749,-0.007456850,-0.009587379,-0.007456850,-0.779312670,0.398634583,9.356540680
7270.742795094,-0.004261057,-0.006391586,-0.005326321,-0.779312670,0.398634583,9.356540680
7270.744877029,-0.006391586,-0.009587379,-0.004261057,-0.779312670,0.398634583,9.356540680
7270.746800372,-0.003195793,-0.014913701,-0.011717907,-0.791283667,0.404620081,9.351752281
7270.748494290,-0.006391586,-0.007456850,-0.007456850,-0.791283667,0.404620081,9.351752281
7270.750463172,0.001065264,0.001065264,-0.005326321,-0.805648863,0.390254885,9.302670479
7270.752775389,-0.002130529,-0.018109493,-0.005326321,-0.805648863,0.390254885,9.302670479
7270.754804134,0.006391586,-0.013848436,-0.009587379,-0.790086567,0.392649084,9.373299599
7270.756572830,0.006391586,-0.004261057,-0.018109493,-0.790086567,0.392649084,9.373299599
7270.758822744,-0.002130529,-0.013848436,-0.005326321,-0.790086567,0.392649084,9.373299599
7270.760811775,0.000000000,-0.003195793,-0.015978964,-0.774524271,0.408211380,9.318233490
7270.762787815,0.000000000,-0.007456850,0.003195793,-0.774524271,0.408211380,9.318233490
7270.764517365,-0.009587379,-0.008522115,-0.003195793,-0.794874966,0.417788208,9.327810287
7270.766492104,-0.002130529,-0.009587379,-0.006391586,-0.794874966,0.417788208,9.327810287
7270.768703611,-0.001065264,-0.001065264,0.006391586,-0.794874966,0.417788208,9.327810287
7270.770821142,-0.009587379,0.003195793,0.001065264,-0.768538773,0.421379507,9.368511200
7270.772835397,-0.002130529,-0.018109493,-0.006391586,-0.768538773,0.421379507,9.368511200
7270.774571053,-0.001065264,-0.013848436,0.002130529,-0.768538773,0.421379507,9.368511200
7270.777045749,-0.007456850,-0.019174758,0.002130529,-0.761356115,0.408211380,9.325415611
7270.778481927,-0.006391586,-0.003195793,-0.002130529,-0.761356115,0.408211380,9.325415611
7270.780458517,-0.001065264,0.001065264,0.005326321,-0.792480767,0.398634583,9.301473618
7270.782357998,-0.002130529,-0.007456850,0.002130529,-0.792480767,0.398634583,9.301473618
7270.784510945,-0.004261057,-0.004261057,-0.004261057,-0.792480767,0.387860686,9.364919662
7270.786575015,-0.002130529,-0.004261057,0.001065264,-0.792480767,0.387860686,9.364919662
7270.788437465,0.003195793,-0.003195793,-0.002130529,-0.792480767,0.387860686,9.364919662
7270.790407129,-0.013848436,-0.013848436,-0.004261057,-0.776918471,0.405817181,9.345766068
7270.792327025,-0.019174758,-0.020240022,-0.003195793,-0.776918471,0.405817181,9.345766068
7270.794524129,-0.007456850,-0.004261057,-0.001065264,-0.784101069,0.411802679,9.337387085
7270.796660519,0.004261057,-0.009587379,0.005326321,-0.784101069,0.411802679,9.337387085
7270.798434091,-0.003195793,0.004261057,-0.010652643,-0.784101069,0.411802679,9.337387085
7270.800445245,-0.007456850,-0.009587379,-0.003195793,-0.798466265,0.404620081,9.396044731
7270.802601323,0.000000000,-0.021305285,-0.011717907,-0.798466265,0.404620081,9.396044731
7270.804814461,0.002130529,-0.007456850,0.001065264,-0.785298169,0.404620081,9.306262016
7270.806572358,-0.008522115,0.003195793,-0.005326321,-0.785298169,0.404620081,9.306262016
7270.808841571,0.000000000,-0.011717907,-0.004261057,-0.785298169,0.404620081,9.306262016
7270.810483288,0.004261057,-0.009587379,-0.008522115,-0.757764816,0.426167905,9.330204010
7270.812748358,-0.005326321,-0.004261057,-0.002130529,-0.757764816,0.426167905,9.330204010
7270.814454444,-0.006391586,-0.012783172,-0.009587379,-0.780509770,0.407014281,9.308655739
7270.816805106,-0.005326321,-0.011717907,-0.009587379,-0.780509770,0.407014281,9.308655739
7270.818684816,-0.004261057,-0.007456850,-0.002130529,-0.773327172,0.392649084,9.296685219
7270.820418159,-0.008522115,-0.005326321,-0.003195793,-0.773327172,0.392649084,9.296685219
7270.822589008,-0.003195793,-0.008522115,0.002130529,-0.773327172,0.392649084,9.296685219
7270.824529414,-0.013848436,-0.015978964,0.000000000,-0.794874966,0.398634583,9.362525940
7270.826651798,0.010652643,-0.021305285,0.000000000,-0.794874966,0.398634583,9.362525940
7270.828438691,-0.003195793,0.000000000,-0.002130529,-0.784101069,0.402225882,9.356540680
7270.830468705,0.000000000,-0.020240022,-0.004261057,-0.784101069,0.402225882,9.356540680
7270.832808326,-0.004261057,-0.003195793,-0.007456850,-0.784101069,0.402225882,9.356540680
7270.834758824,0.000000000,-0.013848436,-0.013848436,-0.755370617,0.402225882,9.355342865
7270.836755078,0.001065264,-0.007456850,-0.005326321,-0.755370617,0.402225882,9.355342865
7270.838478623,0.001065264,-0.007456850,0.006391586,-0.763750315,0.409408480,9.324218750
7270.840689268,-0.001065264,-0.003195793,-0.013848436,-0.763750315,0.409408480,9.324218750
7270.842821102,0.003195793,-0.010652643,-0.005326321,-0.763750315,0.409408480,9.324218750
7270.844350917,-0.006391586,-0.010652643,-0.002130529,-0.776918471,0.391451985,9.355342865
7270.846384900,-0.010652643,-0.012783172,-0.009587379,-0.776918471,0.391451985,9.355342865
7270.848485568,0.003195793,-0.006391586,-0.004261057,-0.793677866,0.391451985,9.300276756
7270.850526121,0.006391586,-0.015978964,-0.006391586,-0.793677866,0.391451985,9.300276756
7270.852813901,-0.008522115,-0.003195793,0.009587379,-0.793677866,0.391451985,9.300276756
7270.854630894,-0.007456850,-0.009587379,0.003195793,-0.791283667,0.398634583,9.358934402
7270.856395778,-0.008522115,-0.001065264,-0.012783172,-0.791283667,0.398634583,9.358934402
7270.858782697,0.012783172,-0.018109493,-0.008522115,-0.791283667,0.398634583,9.358934402
7270.860767641,-0.003195793,-0.005326321,0.001065264,-0.774524271,0.396240383,9.349357605
7270.862786689,0.007456850,-0.009587379,-0.001065264,-0.774524271,0.396240383,9.349357605
7270.864574425,0.001065264,-0.004261057,0.003195793,-0.770932972,0.405817181,9.313444138
7270.866827146,-0.006391586,0.003195793,0.004261057,-0.770932972,0.405817181,9.313444138
7270.868811652,-0.008522115,-0.006391586,-0.006391586,-0.768538773,0.414196908,9.354146004
7270.870826099,-0.008522115,-0.002130529,-0.013848436,-0.768538773,0.414196908,9.354146004
7270.872801780,-0.002130529,-0.021305285,0.008522115,-0.768538773,0.414196908,9.354146004
7270.874482965,-0.003195793,-0.004261057,-0.004261057,-0.806845963,0.396240383,9.306262016
7270.876780915,-0.005326321,0.003195793,-0.004261057,-0.806845963,0.396240383,9.306262016
7270.878780688,-0.013848436,0.002130529,0.003195793,-0.778115571,0.410605580,9.320627213
7270.880806941,-0.005326321,0.004261057,0.006391586,-0.778115571,0.410605580,9.320627213
7270.882431457,-0.004261057,-0.017044229,-0.001065264,-0.778115571,0.410605580,9.320627213
7270.884791760,-0.002130529,-0.012783172,0.001065264,-0.791283667,0.399831682,9.378087997
7270.886767802,-0.010652643,-0.008522115,0.012783172,-0.791283667,0.399831682,9.378087997
7270.888779167,0.004261057,-0.017044229,-0.009587379,-0.787692368,0.424970806,9.305065155
7270.890750963,-0.008522115,-0.002130529,-0.006391586,-0.787692368,0.424970806,9.305065155
7270.892440699,-0.004261057,-0.010652643,-0.009587379,-0.787692368,0.424970806,9.305065155
7270.894834168,-0.010652643,-0.008522115,-0.002130529,-0.779312670,0.417788208,9.390059471
7270.896785493,-0.007456850,-0.017044229,-0.004261057,-0.779312670,0.417788208,9.390059471
7270.898450268,-0.001065264,-0.003195793,-0.004261057,-0.784101069,0.393846184,9.333795547
7270.900444382,0.000000000,0.002130529,0.005326321,-0.784101069,0.393846184,9.333795547
7270.902701074,-0.008522115,-0.007456850,-0.005326321,-0.784101069,0.393846184,9.333795547
7270.904771311,-0.005326321,0.001065264,0.003195793,-0.788889468,0.402225882,9.307458878
7270.906723003,-0.008522115,-0.015978964,-0.006391586,-0.788889468,0.402225882,9.307458878
7270.908731577,-0.012783172,-0.003195793,0.003195793,-0.775721371,0.403422982,9.344569206
7270.910463832,0.008522115,-0.003195793,-0.009587379,-0.775721371,0.403422982,9.344569206
7270.912549458,-0.011717907,-0.004261057,0.006391586,-0.775721371,0.403422982,9.344569206
7270.914844118,-0.017044229,-0.013848436,-0.007456850,-0.818816960,0.407014281,9.333795547
7270.916815141,0.000000000,-0.009587379,-0.013848436,-0.818816960,0.407014281,9.333795547
7270.918569259,-0.004261057,0.000000000,-0.008522115,-0.781706870,0.416591108,9.349357605
7270.920810401,0.000000000,-0.018109493,-0.027696872,-0.781706870,0.416591108,9.349357605
7270.922863829,-0.003195793,0.001065264,-0.007456850,-0.781706870,0.416591108,9.349357605
7270.924835107,-0.004261057,-0.006391586,-0.005326321,-0.774524271,0.385466486,9.367314339
7270.926777263,-0.009587379,-0.013848436,-0.005326321,-0.774524271,0.385466486,9.367314339
7270.928440274,-0.014913701,-0.006391586,-0.002130529,-0.754173517,0.402225882,9.295488358
7270.930468744,-0.003195793,-0.009587379,-0.007456850,-0.754173517,0.402225882,9.295488358
7270.932579501,0.000000000,-0.001065264,-0.001065264,-0.754173517,0.402225882,9.295488358
7270.934796179,0.001065264,-0.009587379,-0.014913701,-0.746990919,0.409408480,9.349357605
7270.936433568,-0.027696872,0.001065264,0.015978964,-0.746990919,0.409408480,9.349357605
7270.938673871,-0.018109493,-0.007456850,-0.001065264,-0.800860465,0.407014281,9.370905876
7270.940722834,0.001065264,-0.011717907,-0.003195793,-0.800860465,0.407014281,9.370905876
7270.942716947,-0.004261057,-0.010652643,-0.004261057,-0.800860465,0.407014281,9.370905876
7270.944546900,0.001065264,-0.030892665,-0.003195793,-0.772130072,0.411802679,9.291896820
7270.946448746,0.001065264,-0.014913701,-0.008522115,-0.772130072,0.411802679,9.291896820
7270.948818850,-0.007456850,-0.001065264,-0.007456850,-0.772130072,0.411802679,9.291896820
7270.950464752,-0.001065264,-0.006391586,-0.005326321,-0.786495268,0.393846184,9.387664795
7270.952432037,0.002130529,-0.003195793,-0.010652643,-0.786495268,0.393846184,9.387664795
7270.954491804,-0.001065264,-0.014913701,-0.005326321,-0.799663365,0.402225882,9.354146004
7270.956495215,0.002130529,-0.004261057,-0.003195793,-0.799663365,0.402225882,9.354146004
7270.958558305,0.002130529,0.001065264,-0.007456850,-0.782903969,0.423773706,9.311050415
7270.960553140,0.000000000,-0.010652643,-0.001065264,-0.782903969,0.423773706,9.311050415
7270.962751982,-0.001065264,-0.010652643,-0.009587379,-0.812831461,0.391451985,9.355342865
7270.964481468,-0.017044229,0.003195793,0.002130529,-0.812831461,0.391451985,9.355342865
7270.966471158,-0.006391586,-0.020240022,0.012783172,-0.812831461,0.391451985,9.355342865
7270.968715276,-0.007456850,-0.007456850,0.011717907,-0.780509770,0.399831682,9.356540680
7270.970557049,-0.004261057,-0.002130529,-0.003195793,-0.780509770,0.399831682,9.356540680
7270.972404431,-0.002130529,-0.005326321,-0.003195793,-0.762553215,0.444124401,9.342175484
7270.974762634,-0.007456850,-0.019174758,0.002130529,-0.762553215,0.444124401,9.342175484
7270.976584909,0.000000000,-0.005326321,-0.003195793,-0.762553215,0.444124401,9.342175484
7270.978471542,-0.003195793,-0.005326321,-0.006391586,-0.770932972,0.410605580,9.382876396
7270.980485370,-0.011717907,-0.007456850,-0.011717907,-0.770932972,0.410605580,9.382876396
7270.982587875,-0.002130529,-0.020240022,0.000000000,-0.786495268,0.408211380,9.323021889
7270.984394081,-0.012783172,-0.007456850,-0.001065264,-0.786495268,0.408211380,9.323021889
7270.986445531,0.004261057,-0.003195793,0.010652643,-0.786495268,0.408211380,9.323021889
7270.988322869,-0.002130529,-0.005326321,-0.006391586,-0.776918471,0.420182407,9.332598686
7270.990410708,-0.007456850,-0.004261057,-0.004261057,-0.776918471,0.420182407,9.332598686
7270.992421472,-0.005326321,-0.006391586,0.002130529,-0.776918471,0.420182407,9.332598686
7270.994406555,-0.003195793,0.003195793,0.005326321,-0.757764816,0.412999779,9.373299599
7270.996566138,-0.003195793,-0.006391586,-0.003195793,-0.757764816,0.412999779,9.373299599
7270.998816764,0.000000000,-0.014913701,-0.011717907,-0.786495268,0.414196908,9.290699959
7271.000583226,0.000000000,-0.006391586,-0.004261057,-0.786495268,0.414196908,9.290699959
7271.002508770,-0.011717907,-0.011717907,-0.003195793,-0.815225661,0.417788208,9.372102737
7271.004673849,-0.006391586,-0.005326321,-0.010652643,-0.815225661,0.417788208,9.372102737
7271.006510695,-0.006391586,-0.001065264,0.002130529,-0.815225661,0.417788208,9.372102737
7271.008495351,0.001065264,-0.010652643,-0.005326321,-0.778115571,0.409408480,9.408015251
7271.010460870,-0.003195793,-0.002130529,-0.004261057,-0.778115571,0.409408480,9.408015251
7271.012531428,-0.002130529,-0.005326321,0.005326321,-0.778115571,0.409408480,9.408015251
7271.014548813,-0.010652643,-0.003195793,-0.001065264,-0.774524271,0.399831682,9.302670479
7271.016485369,-0.005326321,-0.009587379,0.009587379,-0.774524271,0.399831682,9.302670479
7271.018439163,-0.024501080,-0.004261057,-0.003195793,-0.806845963,0.409408480,9.308655739
7271.020777438,-0.008522115,-0.012783172,-0.009587379,-0.806845963,0.409408480,9.308655739
7271.022575572,0.003195793,-0.019174758,-0.006391586,-0.800860465,0.402225882,9.410409927
7271.024834256,0.004261057,0.006391586,-0.011717907,-0.800860465,0.402225882,9.410409927
7271.026571714,-0.002130529,-0.010652643,-0.011717907,-0.800860465,0.402225882,9.410409927
7271.028475492,-0.008522115,-0.006391586,0.000000000,-0.778115571,0.407014281,9.305065155
7271.030710624,0.002130529,-0.011717907,-0.009587379,-0.778115571,0.407014281,9.305065155
7271.032505408,-0.002130529,-0.007456850,0.001065264,-0.781706870,0.403422982,9.362525940
7271.034714505,0.003195793,-0.008522115,-0.010652643,-0.781706870,0.403422982,9.362525940
7271.036396212,-0.005326321,-0.005326321,-0.003195793,-0.781706870,0.403422982,9.362525940
7271.038860331,0.001065264,0.000000000,0.004261057,-0.775721371,0.403422982,9.325415611
7271.040832835,-0.012783172,-0.007456850,0.003195793,-0.775721371,0.403422982,9.325415611
7271.042850339,-0.005326321,-0.007456850,-0.013848436,-0.778115571,0.418985307,9.329007149
7271.044862933,0.001065264,-0.014913701,-0.003195793,-0.778115571,0.418985307,9.329007149
7271.046814332,-0.002130529,-0.021305285,-0.008522115,-0.778115571,0.418985307,9.329007149
7271.048333022,0.002130529,-0.008522115,-0.007456850,-0.800860465,0.407014281,9.351752281
7271.050768409,-0.002130529,-0.009587379,-0.015978964,-0.800860465,0.407014281,9.351752281
7271.052772549,0.001065264,-0.018109493,0.003195793,-0.802057564,0.393846184,9.354146004
7271.054391567,-0.012783172,-0.007456850,0.008522115,-0.802057564,0.393846184,9.354146004
7271.056774796,-0.002130529,-0.011717907,0.001065264,-0.802057564,0.393846184,9.354146004
7271.058798306,-0.007456850,-0.004261057,-0.002130529,-0.780509770,0.407014281,9.319430351
7271.060804157,0.008522115,-0.009587379,0.000000000,-0.780509770,0.407014281,9.319430351
7271.062771470,0.000000000,-0.007456850,-0.001065264,-0.775721371,0.409408480,9.416395187
7271.064386687,-0.007456850,-0.007456850,-0.003195793,-0.775721371,0.409408480,9.416395187
7271.066782842,0.001065264,-0.002130529,0.005326321,-0.775721371,0.409408480,9.416395187
7271.068768891,0.003195793,-0.004261057,-0.008522115,-0.791283667,0.405817181,9.285911560
7271.070511981,0.003195793,-0.008522115,-0.001065264,-0.791283667,0.405817181,9.285911560
7271.072414382,-0.004261057,-0.003195793,0.000000000,-0.778115571,0.415394008,9.340977669
7271.074469598,-0.010652643,-0.013848436,-0.003195793,-0.778115571,0.415394008,9.340977669
7271.076873023,-0.006391586,-0.014913701,0.006391586,-0.778115571,0.415394008,9.340977669
7271.078752695,0.001065264,0.006391586,0.003195793,-0.799663365,0.402225882,9.412803650
7271.080754444,0.001065264,-0.009587379,-0.002130529,-0.799663365,0.402225882,9.412803650
7271.082459346,-0.014913701,-0.008522115,0.001065264,-0.794874966,0.398634583,9.300276756
7271.084782961,0.001065264,-0.006391586,-0.014913701,-0.794874966,0.398634583,9.300276756
7271.086764459,0.007456850,-0.005326321,-0.017044229,-0.794874966,0.398634583,9.300276756
7271.088756483,-0.006391586,-0.002130529,-0.001065264,-0.797269166,0.420182407,9.352949142
7271.090397286,-0.002130529,-0.004261057,0.001065264,-0.797269166,0.420182407,9.352949142
7271.092389026,-0.006391586,-0.001065264,0.001065264,-0.800860465,0.404620081,9.402029991
7271.094318790,0.002130529,-0.008522115,-0.013848436,-0.800860465,0.404620081,9.402029991
7271.096383103,0.008522115,-0.015978964,-0.005326321,-0.800860465,0.404620081,9.402029991
7271.098383867,0.006391586,-0.020240022,-0.010652643,-0.779312670,0.405817181,9.336189270
7271.100423864,-0.006391586,-0.008522115,0.000000000,-0.779312670,0.405817181,9.336189270
7271.102402068,0.002130529,-0.006391586,-0.005326321,-0.761356115,0.426167905,9.391256332
7271.104575397,-0.001065264,-0.010652643,0.002130529,-0.761356115,0.426167905,9.391256332
7271.106436180,-0.013848436,-0.013848436,-0.005326321,-0.761356115,0.426167905,9.391256332
7271.108608317,-0.012783172,0.000000000,0.000000000,-0.788889468,0.411802679,9.349357605
7271.110495005,-0.003195793,-0.020240022,-0.008522115,-0.788889468,0.411802679,9.349357605
7271.112842306,-0.002130529,0.002130529,-0.006391586,-0.785298169,0.402225882,9.276334763
7271.114944408,0.000000000,-0.014913701,0.009587379,-0.785298169,0.402225882,9.276334763
7271.116779003,-0.006391586,-0.010652643,0.003195793,-0.818816960,0.402225882,9.381679535
7271.118753236,-0.007456850,-0.011717907,-0.001065264,-0.818816960,0.402225882,9.381679535
7271.120752812,-0.006391586,-0.004261057,0.003195793,-0.818816960,0.402225882,9.381679535
7271.122750555,-0.004261057,-0.007456850,0.003195793,-0.785298169,0.402225882,9.348160744
7271.124787778,-0.003195793,-0.004261057,-0.013848436,-0.785298169,0.402225882,9.348160744
7271.126675949,0.001065264,-0.004261057,-0.011717907,-0.785298169,0.402225882,9.348160744
7271.128842803,-0.010652643,-0.017044229,-0.012783172,-0.776918471,0.424970806,9.330204010
7271.130468112,-0.007456850,0.003195793,-0.003195793,-0.776918471,0.424970806,9.330204010
7271.132447148,-0.006391586,-0.009587379,0.008522115,-0.776918471,0.392649084,9.356540680
7271.134688785,0.000000000,-0.002130529,0.006391586,-0.776918471,0.392649084,9.356540680
7271.136694538,-0.001065264,-0.012783172,0.008522115,-0.812831461,0.395043284,9.333795547
7271.138783446,-0.004261057,-0.009587379,-0.010652643,-0.812831461,0.395043284,9.333795547
7271.140758929,-0.004261057,-0.004261057,0.005326321,-0.812831461,0.395043284,9.333795547
7271.142763579,-0.013848436,-0.006391586,0.002130529,-0.776918471,0.420182407,9.362525940
7271.144418458,-0.013848436,-0.009587379,0.003195793,-0.776918471,0.420182407,9.362525940
7271.146762829,0.002130529,-0.006391586,-0.004261057,-0.791283667,0.409408480,9.363722801
7271.148456220,-0.004261057,-0.008522115,0.005326321,-0.791283667,0.409408480,9.363722801
7271.150393320,0.002130529,-0.015978964,-0.007456850,-0.791283667,0.409408480,9.363722801
7271.152226573,0.000000000,-0.020240022,-0.006391586,-0.778115571,0.420182407,9.313444138
7271.154714865,-0.002130529,-0.011717907,-0.010652643,-0.778115571,0.420182407,9.313444138
7271.156698361,0.003195793,-0.010652643,-0.004261057,-0.768538773,0.414196908,9.393650055
7271.158615639,-0.007456850,-0.009587379,-0.005326321,-0.768538773,0.414196908,9.393650055
7271.160694024,-0.006391586,-0.007456850,-0.009587379,-0.768538773,0.414196908,9.393650055
7271.162813688,-0.006391586,-0.019174758,-0.006391586,-0.784101069,0.390254885,9.351752281
7271.164876273,-0.003195793,-0.007456850,-0.009587379,-0.784101069,0.390254885,9.351752281
7271.166786225,-0.002130529,-0.001065264,-0.004261057,-0.796072066,0.415394008,9.305065155
7271.168763748,-0.010652643,-0.008522115,0.006391586,-0.796072066,0.415394008,9.305065155
7271.170398629,0.001065264,-0.009587379,-0.002130529,-0.796072066,0.415394008,9.305065155
7271.172749532,-0.005326321,-0.003195793,0.005326321,-0.760159016,0.404620081,9.355342865
7271.174793474,-0.005326321,-0.005326321,0.001065264,-0.760159016,0.404620081,9.355342865
7271.176840959,0.000000000,-0.002130529,-0.002130529,-0.760159016,0.404620081,9.355342865
7271.178770929,-0.010652643,-0.015978964,-0.006391586,-0.797269166,0.404620081,9.332598686
7271.180449322,0.005326321,-0.006391586,-0.002130529,-0.797269166,0.404620081,9.332598686
7271.182817746,-0.009587379,-0.006391586,0.002130529,-0.780509770,0.421379507,9.348160744
7271.184809480,-0.007456850,0.005326321,-0.001065264,-0.780509770,0.421379507,9.348160744
7271.186763880,0.002130529,-0.010652643,-0.012783172,-0.770932972,0.396240383,9.403226852
7271.188404013,-0.011717907,0.006391586,0.003195793,-0.770932972,0.396240383,9.403226852
7271.190455461,-0.003195793,-0.014913701,-0.009587379,-0.770932972,0.396240383,9.403226852
7271.192429422,-0.001065264,-0.012783172,0.004261057,-0.790086567,0.409408480,9.317035675
7271.194492780,0.002130529,-0.014913701,0.002130529,-0.790086567,0.409408480,9.317035675
7271.196570720,-0.005326321,-0.005326321,0.003195793,-0.781706870,0.421379507,9.314641953
7271.198600209,0.005326321,-0.014913701,-0.005326321,-0.781706870,0.421379507,9.314641953
7271.200562507,0.003195793,-0.014913701,-0.009587379,-0.781706870,0.421379507,9.314641953
7271.202693754,0.000000000,-0.010652643,-0.003195793,-0.768538773,0.405817181,9.363722801
7271.204730348,-0.002130529,-0.003195793,0.005326321,-0.768538773,0.405817181,9.363722801
7271.206444674,-0.006391586,-0.001065264,0.000000000,-0.785298169,0.410605580,9.315838814
7271.208378388,-0.002130529,-0.015978964,-0.002130529,-0.785298169,0.410605580,9.315838814
7271.210609691,-0.001065264,-0.010652643,-0.009587379,-0.785298169,0.410605580,9.315838814
7271.212481652,-0.019174758,-0.006391586,0.010652643,-0.782903969,0.422576606,9.346963882
7271.214641409,-0.005326321,-0.011717907,-0.015978964,-0.782903969,0.422576606,9.346963882
7271.216820524,-0.014913701,0.001065264,0.001065264,-0.803254664,0.398634583,9.384073257
7271.218606472,-0.004261057,-0.003195793,-0.009587379,-0.803254664,0.398634583,9.384073257
7271.220475407,-0.011717907,-0.002130529,-0.004261057,-0.803254664,0.398634583,9.384073257
7271.222685592,-0.013848436,-0.006391586,-0.013848436,-0.779312670,0.386663586,9.306262016
7271.224404155,0.008522115,-0.014913701,-0.007456850,-0.779312670,0.386663586,9.306262016
7271.226504552,-0.020240022,0.012783172,-0.003195793,-0.779312670,0.386663586,9.306262016
7271.228481163,-0.012783172,-0.019174758,0.006391586,-0.790086567,0.412999779,9.357737541
7271.230379692,-0.006391586,-0.008522115,0.000000000,-0.790086567,0.412999779,9.357737541
7271.232461470,-0.011717907,0.001065264,-0.001065264,-0.748188019,0.414196908,9.364919662
7271.234759166,-0.006391586,-0.011717907,0.002130529,-0.748188019,0.414196908,9.364919662
7271.236607190,-0.011717907,-0.007456850,-0.010652643,-0.806845963,0.392649084,9.300276756
7271.238602354,-0.002130529,-0.008522115,0.003195793,-0.806845963,0.392649084,9.300276756
7271.240745502,-0.006391586,-0.003195793,-0.002130529,-0.806845963,0.392649084,9.300276756
7271.242403819,-0.005326321,-0.009587379,-0.004261057,-0.776918471,0.427365005,9.404424667
7271.244735606,0.003195793,-0.007456850,-0.006391586,-0.776918471,0.427365005,9.404424667
7271.246754428,-0.006391586,-0.009587379,-0.006391586,-0.776918471,0.427365005,9.404424667
7271.248463667,-0.008522115,-0.001065264,-0.007456850,-0.809240162,0.391451985,9.381679535
7271.250774104,-0.006391586,-0.015978964,-0.008522115,-0.809240162,0.391451985,9.381679535
7271.252776372,-0.014913701,-0.007456850,0.000000000,-0.784101069,0.387860686,9.323021889
7271.254820298,-0.018109493,-0.004261057,0.008522115,-0.784101069,0.387860686,9.323021889
7271.256763732,0.001065264,-0.015978964,-0.018109493,-0.790086567,0.396240383,9.348160744
7271.258800080,0.005326321,-0.013848436,-0.001065264,-0.790086567,0.396240383,9.348160744
7271.260449868,-0.010652643,0.001065264,0.006391586,-0.790086567,0.396240383,9.348160744
7271.262391832,-0.004261057,-0.014913701,0.002130529,-0.769735873,0.387860686,9.332598686
7271.264859601,0.004261057,-0.018109493,-0.003195793,-0.769735873,0.387860686,9.332598686
7271.266799618,0.002130529,-0.008522115,-0.008522115,-0.791283667,0.401028782,9.348160744
7271.268505100,-0.010652643,-0.008522115,-0.003195793,-0.791283667,0.401028782,9.348160744
7271.270385507,-0.005326321,-0.013848436,-0.006391586,-0.791283667,0.401028782,9.348160744
7271.272511883,0.004261057,-0.010652643,-0.007456850,-0.764947414,0.415394008,9.382876396
7271.274540145,-0.001065264,-0.011717907,-0.003195793,-0.764947414,0.415394008,9.382876396
7271.276736303,-0.008522115,-0.004261057,-0.003195793,-0.775721371,0.404620081,9.308655739
7271.278422768,-0.002130529,0.000000000,-0.002130529,-0.775721371,0.404620081,9.308655739
7271.280662142,0.004261057,-0.015978964,0.002130529,-0.792480767,0.430956304,9.311050415
7271.282439197,-0.005326321,-0.010652643,-0.007456850,-0.792480767,0.430956304,9.311050415
7271.284784055,-0.013848436,0.000000000,0.000000000,-0.792480767,0.430956304,9.311050415
7271.286748217,-0.002130529,-0.013848436,0.004261057,-0.784101069,0.405817181,9.393650055
7271.288794357,-0.002130529,-0.007456850,-0.008522115,-0.784101069,0.405817181,9.393650055
7271.290757667,-0.001065264,-0.003195793,0.001065264,-0.762553215,0.403422982,9.283516884
7271.292728479,-0.010652643,-0.002130529,-0.004261057,-0.762553215,0.403422982,9.283516884
7271.294745581,-0.005326321,-0.014913701,0.000000000,-0.762553215,0.403422982,9.283516884
7271.296443078,-0.004261057,-0.006391586,0.005326321,-0.781706870,0.420182407,9.367314339
7271.298710775,-0.003195793,-0.013848436,-0.009587379,-0.781706870,0.420182407,9.367314339
7271.300440488,-0.007456850,-0.008522115,-0.002130529,-0.788889468,0.429759204,9.388861656
7271.302806349,-0.001065264,-0.019174758,0.004261057,-0.788889468,0.429759204,9.388861656
7271.304770996,0.007456850,-0.011717907,-0.005326321,-0.788889468,0.429759204,9.388861656
7271.306763432,-0.008522115,-0.006391586,-0.003195793,-0.791283667,0.387860686,9.312247276
7271.308771763,-0.008522115,-0.002130529,0.000000000,-0.791283667,0.387860686,9.312247276
7271.310770970,-0.002130529,-0.011717907,-0.004261057,-0.781706870,0.407014281,9.379284859
7271.312744484,-0.010652643,-0.004261057,-0.001065264,-0.781706870,0.407014281,9.379284859
7271.314394376,-0.008522115,-0.007456850,-0.002130529,-0.781706870,0.407014281,9.379284859
7271.316393641,0.006391586,-0.010652643,0.003195793,-0.805648863,0.398634583,9.329007149
7271.318443412,-0.001065264,-0.004261057,0.002130529,-0.805648863,0.398634583,9.329007149
7271.320772845,-0.002130529,-0.009587379,-0.003195793,-0.774524271,0.414196908,9.309853554
7271.322749114,-0.009587379,-0.008522115,0.003195793,-0.774524271,0.414196908,9.309853554
7271.324763548,0.002130529,-0.007456850,0.002130529,-0.774524271,0.414196908,9.309853554
7271.326905566,0.004261057,-0.018109493,-0.010652643,-0.798466265,0.403422982,9.350554466
7271.328490601,-0.004261057,-0.008522115,-0.008522115,-0.798466265,0.403422982,9.350554466
7271.330738380,0.003195793,-0.024501080,0.001065264,-0.793677866,0.391451985,9.330204010
7271.332383952,-0.004261057,-0.003195793,-0.009587379,-0.793677866,0.391451985,9.330204010
7271.334399487,0.006391586,-0.006391586,0.001065264,-0.793677866,0.391451985,9.330204010
7271.336400719,-0.010652643,-0.013848436,-0.004261057,-0.786495268,0.420182407,9.309853554
7271.338700117,-0.013848436,-0.003195793,0.007456850,-0.786495268,0.420182407,9.309853554
7271.340676545,-0.002130529,-0.007456850,-0.012783172,-0.778115571,0.409408480,9.381679535
7271.342763268,-0.010652643,-0.001065264,-0.003195793,-0.778115571,0.409408480,9.381679535
7271.344447061,-0.001065264,-0.008522115,-0.003195793,-0.778115571,0.409408480,9.381679535
7271.346467383,-0.010652643,-0.011717907,0.001065264,-0.798466265,0.402225882,9.240421295
7271.348474576,-0.009587379,0.002130529,0.004261057,-0.798466265,0.402225882,9.240421295
7271.350371830,-0.007456850,-0.018109493,-0.010652643,-0.781706870,0.401028782,9.348160744
7271.352521381,-0.005326321,-0.004261057,0.002130529,-0.781706870,0.401028782,9.348160744
7271.354469545,0.009587379,-0.019174758,-0.003195793,-0.781706870,0.401028782,9.348160744
7271.356520965,-0.004261057,-0.005326321,0.002130529,-0.781706870,0.393846184,9.411606789
7271.358345850,0.001065264,-0.015978964,-0.010652643,-0.781706870,0.393846184,9.411606789
7271.360746414,-0.005326321,-0.010652643,-0.010652643,-0.780509770,0.396240383,9.349357605
7271.362514211,-0.004261057,-0.003195793,-0.006391586,-0.780509770,0.396240383,9.349357605
7271.364791773,-0.009587379,-0.008522115,-0.001065264,-0.780509770,0.396240383,9.349357605
7271.366770130,-0.002130529,-0.006391586,0.001065264,-0.803254664,0.430956304,9.351752281
7271.368437124,-0.012783172,-0.006391586,-0.003195793,-0.803254664,0.430956304,9.351752281
7271.370766794,-0.017044229,-0.015978964,0.000000000,-0.788889468,0.424970806,9.345766068
7271.372648054,-0.004261057,0.000000000,-0.005326321,-0.788889468,0.424970806,9.345766068
7271.374667828,-0.006391586,-0.020240022,-0.001065264,-0.788889468,0.424970806,9.345766068
7271.376818325,-0.005326321,-0.009587379,-0.002130529,-0.788889468,0.377086759,9.315838814
7271.378399621,-0.011717907,-0.006391586,0.003195793,-0.788889468,0.377086759,9.315838814
7271.380431415,-0.006391586,-0.020240022,-0.010652643,-0.761356115,0.415394008,9.374496460
7271.382363958,-0.007456850,-0.009587379,-0.009587379,-0.761356115,0.415394008,9.374496460
7271.384757670,-0.014913701,-0.007456850,-0.005326321,-0.761356115,0.415394008,9.374496460
7271.386398482,0.000000000,0.000000000,-0.002130529,-0.806845963,0.391451985,9.352949142
7271.388677453,-0.001065264,-0.007456850,-0.005326321,-0.806845963,0.391451985,9.352949142
7271.390459376,-0.007456850,-0.005326321,-0.004261057,-0.781706870,0.396240383,9.301473618
7271.392546449,-0.003195793,-0.018109493,-0.005326321,-0.781706870,0.396240383,9.301473618
7271.394491451,-0.011717907,-0.005326321,-0.007456850,-0.781706870,0.396240383,9.301473618
7271.396398435,0.007456850,-0.022370551,-0.010652643,-0.784101069,0.404620081,9.392453194
7271.398405633,0.000000000,-0.007456850,-0.008522115,-0.784101069,0.404620081,9.392453194
7271.400392321,0.002130529,-0.006391586,-0.012783172,-0.788889468,0.399831682,9.373299599
7271.402693188,-0.001065264,-0.004261057,-0.005326321,-0.788889468,0.399831682,9.373299599
7271.404419689,0.001065264,-0.004261057,0.001065264,-0.788889468,0.399831682,9.373299599
7271.406768320,-0.002130529,0.000000000,-0.002130529,-0.797269166,0.398634583,9.330204010
7271.408610599,-0.002130529,-0.014913701,-0.007456850,-0.797269166,0.398634583,9.330204010
7271.410622357,0.005326321,-0.014913701,-0.015978964,-0.780509770,0.403422982,9.382876396
7271.412746295,0.003195793,-0.017044229,-0.010652643,-0.780509770,0.403422982,9.382876396
7271.414811222,-0.001065264,-0.004261057,-0.009587379,-0.780509770,0.403422982,9.382876396
7271.416687524,-0.004261057,-0.015978964,0.001065264,-0.793677866,0.397437483,9.345766068
7271.418698567,-0.009587379,-0.008522115,-0.001065264,-0.793677866,0.397437483,9.345766068
7271.420436858,-0.001065264,-0.009587379,0.001065264,-0.782903969,0.421379507,9.384073257
7271.422383482,0.000000000,-0.008522115,-0.001065264,-0.782903969,0.421379507,9.384073257
7271.424487169,-0.004261057,-0.009587379,-0.004261057,-0.768538773,0.393846184,9.369708061
7271.427135872,-0.009587379,-0.009587379,-0.015978964,-0.768538773,0.393846184,9.369708061
7271.428806555,0.003195793,-0.009587379,-0.003195793,-0.768538773,0.393846184,9.369708061
7271.430787308,-0.007456850,-0.013848436,-0.001065264,-0.804451764,0.402225882,9.305065155
7271.432351762,0.002130529,0.003195793,0.002130529,-0.804451764,0.402225882,9.305065155
7271.434472443,-0.004261057,-0.014913701,-0.002130529,-0.778115571,0.409408480,9.366117477
7271.436268651,0.008522115,-0.015978964,-0.004261057,-0.778115571,0.409408480,9.366117477
7271.438331445,0.002130529,-0.005326321,-0.006391586,-0.778115571,0.409408480,9.366117477
7271.440286739,0.002130529,-0.009587379,-0.008522115,-0.764947414,0.395043284,9.411606789
7271.442351541,-0.005326321,-0.021305285,-0.005326321,-0.764947414,0.395043284,9.411606789
7271.444365563,-0.005326321,-0.004261057,0.005326321,-0.792480767,0.412999779,9.297882080
7271.446377408,-0.005326321,-0.009587379,-0.008522115,-0.792480767,0.412999779,9.297882080
7271.448378640,0.003195793,-0.010652643,-0.002130529,-0.792480767,0.412999779,9.297882080
7271.450764970,-0.005326321,-0.012783172,0.002130529,-0.782903969,0.398634583,9.366117477
7271.452634721,-0.002130529,-0.020240022,-0.001065264,-0.782903969,0.398634583,9.366117477
7271.454664148,-0.006391586,-0.010652643,-0.010652643,-0.787692368,0.379480958,9.354146004
7271.456686589,-0.006391586,-0.005326321,0.004261057,-0.787692368,0.379480958,9.354146004
7271.458422683,0.003195793,-0.009587379,0.001065264,-0.787692368,0.379480958,9.354146004
7271.460460158,-0.002130529,-0.007456850,-0.009587379,-0.779312670,0.397437483,9.302670479
7271.462451729,0.000000000,-0.004261057,-0.001065264,-0.779312670,0.397437483,9.302670479
7271.464379170,0.002130529,0.006391586,-0.004261057,-0.790086567,0.392649084,9.361329079
7271.466724176,-0.009587379,0.002130529,0.004261057,-0.790086567,0.392649084,9.361329079
7271.468616458,-0.005326321,-0.004261057,-0.004261057,-0.790086567,0.392649084,9.361329079
7271.470724179,-0.004261057,0.002130529,0.000000000,-0.799663365,0.420182407,9.360131264
7271.472725405,-0.009587379,-0.004261057,-0.002130529,-0.799663365,0.420182407,9.360131264
7271.474775443,0.007456850,-0.010652643,-0.007456850,-0.785298169,0.395043284,9.296685219
7271.476746739,-0.001065264,-0.017044229,-0.010652643,-0.785298169,0.395043284,9.296685219
7271.478467814,-0.004261057,0.000000000,0.012783172,-0.785298169,0.395043284,9.296685219
7271.480429003,-0.007456850,-0.009587379,-0.002130529,-0.772130072,0.404620081,9.354146004
7271.482686762,0.006391586,-0.005326321,-0.011717907,-0.772130072,0.404620081,9.354146004
7271.484511763,-0.001065264,-0.014913701,-0.001065264,-0.800860465,0.405817181,9.325415611
7271.486573427,-0.001065264,-0.013848436,-0.007456850,-0.800860465,0.405817181,9.325415611
7271.488557297,-0.014913701,-0.010652643,0.003195793,-0.800860465,0.405817181,9.325415611
7271.490537783,0.001065264,-0.007456850,-0.009587379,-0.780509770,0.418985307,9.311050415
7271.492553895,0.000000000,-0.014913701,-0.012783172,-0.780509770,0.418985307,9.311050415
7271.494429899,-0.008522115,-0.011717907,-0.004261057,-0.785298169,0.399831682,9.363722801
7271.496742807,0.002130529,-0.017044229,-0.010652643,-0.785298169,0.399831682,9.363722801
7271.498442559,-0.002130529,-0.001065264,0.005326321,-0.785298169,0.399831682,9.363722801
7271.500709119,-0.005326321,-0.009587379,-0.004261057,-0.755370617,0.418985307,9.299078941
7271.502490278,-0.005326321,-0.004261057,0.001065264,-0.755370617,0.418985307,9.299078941
7271.504696528,-0.007456850,-0.010652643,0.003195793,-0.794874966,0.430956304,9.360131264
7271.506509889,0.004261057,-0.002130529,-0.002130529,-0.794874966,0.430956304,9.360131264
7271.508738944,-0.012783172,-0.008522115,-0.011717907,-0.794874966,0.430956304,9.360131264
7271.510551457,0.002130529,-0.029827401,-0.007456850,-0.804451764,0.386663586,9.396044731
7271.512442011,-0.003195793,-0.009587379,-0.001065264,-0.804451764,0.386663586,9.396044731
7271.514551572,-0.003195793,-0.009587379,-0.001065264,-0.804451764,0.386663586,9.396044731
7271.516531389,-0.005326321,-0.011717907,-0.006391586,-0.802057564,0.398634583,9.297882080
7271.518531158,-0.005326321,-0.019174758,0.002130529,-0.802057564,0.398634583,9.297882080
7271.520514786,-0.006391586,-0.005326321,-0.001065264,-0.798466265,0.411802679,9.358934402
7271.522498461,-0.007456850,-0.018109493,-0.010652643,-0.798466265,0.411802679,9.358934402
7271.524534876,0.002130529,-0.014913701,-0.001065264,-0.788889468,0.392649084,9.358934402
7271.526574038,-0.007456850,-0.001065264,-0.005326321,-0.788889468,0.392649084,9.358934402
7271.528534470,-0.005326321,-0.010652643,-0.012783172,-0.788889468,0.392649084,9.358934402
7271.530396578,-0.001065264,-0.007456850,-0.011717907,-0.791283667,0.407014281,9.318233490
7271.532425700,-0.008522115,-0.001065264,0.005326321,-0.791283667,0.407014281,9.318233490
7271.534498998,-0.005326321,-0.006391586,0.002130529,-0.788889468,0.402225882,9.427168846
7271.536466311,0.005326321,-0.011717907,-0.003195793,-0.788889468,0.402225882,9.427168846
7271.538740912,0.001065264,-0.019174758,0.003195793,-0.788889468,0.402225882,9.427168846
7271.540458347,-0.005326321,-0.010652643,-0.007456850,-0.791283667,0.398634583,9.314641953
7271.542462942,-0.010652643,-0.011717907,0.002130529,-0.791283667,0.398634583,9.314641953
7271.544516271,-0.003195793,-0.004261057,-0.004261057,-0.803254664,0.408211380,9.323021889
7271.546452993,0.006391586,-0.009587379,-0.011717907,-0.803254664,0.408211380,9.323021889
7271.548361934,-0.004261057,-0.018109493,-0.006391586,-0.803254664,0.408211380,9.323021889
7271.550380321,-0.008522115,-0.006391586,-0.001065264,-0.773327172,0.392649084,9.374496460
7271.552470190,0.003195793,-0.002130529,-0.010652643,-0.773327172,0.392649084,9.374496460
7271.554502651,-0.006391586,-0.001065264,-0.009587379,-0.773327172,0.401028782,9.327810287
7271.556450156,-0.008522115,-0.008522115,-0.004261057,-0.773327172,0.401028782,9.327810287
7271.558786016,-0.001065264,0.001065264,-0.008522115,-0.773327172,0.401028782,9.327810287
7271.560454673,0.007456850,-0.002130529,0.005326321,-0.786495268,0.393846184,9.363722801
7271.562441088,-0.021305285,-0.006391586,-0.003195793,-0.786495268,0.393846184,9.363722801
7271.564495199,-0.002130529,-0.017044229,0.001065264,-0.786495268,0.393846184,9.363722801
7271.566463197,-0.007456850,0.002130529,-0.010652643,-0.800860465,0.426167905,9.397241592
7271.568708185,0.000000000,-0.011717907,0.011717907,-0.800860465,0.426167905,9.397241592
7271.570510834,-0.004261057,-0.005326321,0.001065264,-0.782903969,0.417788208,9.323021889
7271.572711354,-0.008522115,-0.001065264,0.004261057,-0.782903969,0.417788208,9.323021889
7271.574551830,0.005326321,-0.005326321,0.001065264,-0.768538773,0.401028782,9.357737541
7271.576724792,-0.004261057,0.001065264,-0.001065264,-0.768538773,0.401028782,9.357737541
7271.578701540,-0.009587379,-0.007456850,-0.004261057,-0.810437262,0.408211380,9.368511200
7271.580479778,0.003195793,-0.008522115,-0.011717907,-0.810437262,0.408211380,9.368511200
7271.582722083,-0.011717907,-0.003195793,0.005326321,-0.810437262,0.408211380,9.368511200
7271.584394360,0.001065264,-0.001065264,-0.005326321,-0.782903969,0.407014281,9.301473618
7271.586391619,-0.005326321,-0.017044229,0.000000000,-0.782903969,0.407014281,9.301473618
7271.588382151,-0.007456850,0.001065264,-0.003195793,-0.787692368,0.429759204,9.382876396
7271.590426038,0.003195793,-0.015978964,-0.002130529,-0.787692368,0.429759204,9.382876396
7271.592383506,-0.013848436,-0.005326321,0.001065264,-0.787692368,0.429759204,9.382876396
7271.594335093,0.001065264,-0.008522115,0.002130529,-0.799663365,0.397437483,9.370905876
7271.596387585,-0.007456850,-0.005326321,0.001065264,-0.799663365,0.397437483,9.370905876
7271.598446713,-0.005326321,-0.006391586,-0.007456850,-0.798466265,0.405817181,9.337387085
7271.600443317,-0.004261057,-0.005326321,-0.001065264,-0.798466265,0.405817181,9.337387085
7271.602433956,-0.006391586,-0.008522115,0.007456850,-0.798466265,0.405817181,9.337387085
7271.604736763,-0.003195793,-0.006391586,-0.004261057,-0.778115571,0.396240383,9.367314339
7271.606394064,-0.001065264,-0.009587379,-0.005326321,-0.778115571,0.396240383,9.367314339
7271.608480747,-0.011717907,-0.004261057,-0.005326321,-0.764947414,0.398634583,9.349357605
7271.610709015,-0.008522115,-0.009587379,0.001065264,-0.764947414,0.398634583,9.349357605
7271.612471588,-0.006391586,-0.017044229,-0.006391586,-0.764947414,0.398634583,9.349357605
7271.614739959,0.000000000,-0.002130529,0.000000000,-0.804451764,0.407014281,9.338583946
7271.616657036,-0.018109493,-0.008522115,0.001065264,-0.804451764,0.407014281,9.338583946
7271.618722185,-0.005326321,-0.015978964,-0.010652643,-0.805648863,0.378283858,9.380482674
7271.620393513,-0.008522115,-0.011717907,0.002130529,-0.805648863,0.378283858,9.380482674
7271.622610126,-0.003195793,-0.012783172,-0.007456850,-0.805648863,0.378283858,9.380482674
7271.624770730,-0.010652643,-0.010652643,-0.006391586,-0.788889468,0.405817181,9.319430351
7271.626711255,0.000000000,-0.004261057,-0.003195793,-0.788889468,0.405817181,9.319430351
7271.628709667,-0.001065264,-0.008522115,0.006391586,-0.797269166,0.421379507,9.370905876
7271.630334872,-0.006391586,-0.007456850,-0.009587379,-0.797269166,0.421379507,9.370905876
7271.632466954,-0.008522115,-0.004261057,0.002130529,-0.797269166,0.421379507,9.370905876
7271.634415452,-0.005326321,-0.006391586,-0.003195793,-0.786495268,0.405817181,9.354146004
7271.636674081,-0.007456850,0.002130529,0.006391586,-0.786495268,0.405817181,9.354146004
7271.638435617,-0.004261057,-0.013848436,-0.010652643,-0.748188019,0.408211380,9.308655739
7271.640461222,-0.009587379,0.000000000,-0.003195793,-0.748188019,0.408211380,9.308655739
7271.642660664,-0.012783172,-0.004261057,0.010652643,-0.748188019,0.408211380,9.308655739
7271.644389134,-0.010652643,-0.006391586,-0.004261057,-0.794874966,0.401028782,9.340977669
7271.646577435,0.006391586,-0.013848436,-0.002130529,-0.794874966,0.401028782,9.340977669
7271.648467126,-0.001065264,-0.009587379,-0.001065264,-0.775721371,0.409408480,9.369708061
7271.650783106,0.004261057,-0.011717907,-0.004261057,-0.775721371,0.409408480,9.369708061
7271.652521611,0.003195793,-0.005326321,-0.004261057,-0.775721371,0.409408480,9.369708061
7271.654764517,-0.008522115,-0.007456850,-0.003195793,-0.763750315,0.397437483,9.332598686
7271.656441316,-0.009587379,-0.020240022,-0.003195793,-0.763750315,0.397437483,9.332598686
7271.658762887,0.004261057,-0.007456850,-0.007456850,-0.782903969,0.426167905,9.374496460
7271.660571294,-0.006391586,-0.009587379,-0.002130529,-0.782903969,0.426167905,9.374496460
7271.662389579,-0.003195793,-0.012783172,-0.006391586,-0.782903969,0.426167905,9.374496460
7271.664714865,-0.003195793,0.003195793,-0.005326321,-0.786495268,0.401028782,9.376891136
7271.666640070,-0.017044229,-0.008522115,0.001065264,-0.786495268,0.401028782,9.376891136
7271.668732193,-0.001065264,-0.005326321,0.004261057,-0.745793819,0.421379507,9.277531624
7271.670753649,-0.002130529,-0.022370551,0.007456850,-0.745793819,0.421379507,9.277531624
7271.672744563,-0.010652643,-0.012783172,0.002130529,-0.745793819,0.421379507,9.277531624
7271.674396708,0.003195793,-0.011717907,-0.008522115,-0.757764816,0.401028782,9.409213066
7271.676700064,0.000000000,-0.013848436,-0.008522115,-0.757764816,0.401028782,9.409213066
7271.678710132,-0.009587379,-0.007456850,-0.009587379,-0.806845963,0.395043284,9.345766068
7271.680704278,-0.013848436,-0.007456850,-0.015978964,-0.806845963,0.395043284,9.345766068
7271.682392460,0.003195793,-0.001065264,0.004261057,-0.806845963,0.395043284,9.345766068
7271.684742481,0.000000000,-0.005326321,-0.006391586,-0.780509770,0.399831682,9.319430351
7271.686737267,-0.001065264,-0.003195793,-0.011717907,-0.780509770,0.399831682,9.319430351
7271.688733527,-0.005326321,-0.009587379,0.004261057,-0.791283667,0.391451985,9.368511200
7271.690738454,0.000000000,-0.011717907,-0.003195793,-0.791283667,0.391451985,9.368511200
7271.692389475,0.003195793,-0.006391586,-0.009587379,-0.791283667,0.391451985,9.368511200
7271.694465660,-0.002130529,-0.011717907,0.009587379,-0.798466265,0.399831682,9.352949142
7271.696720031,-0.002130529,-0.014913701,0.000000000,-0.798466265,0.399831682,9.352949142
7271.698681648,0.010652643,-0.013848436,0.005326321,-0.790086567,0.408211380,9.314641953
7271.700378911,-0.013848436,-0.008522115,-0.007456850,-0.790086567,0.408211380,9.314641953
7271.702653288,-0.010652643,-0.015978964,-0.004261057,-0.790086567,0.408211380,9.314641953
7271.704617955,0.000000000,0.003195793,-0.005326321,-0.787692368,0.417788208,9.369708061
7271.706684150,0.000000000,-0.011717907,0.002130529,-0.787692368,0.417788208,9.369708061
7271.708437561,0.005326321,-0.009587379,0.002130529,-0.794874966,0.420182407,9.329007149
7271.710364065,-0.007456850,-0.008522115,0.006391586,-0.794874966,0.420182407,9.329007149
7271.712476144,-0.006391586,0.002130529,0.006391586,-0.794874966,0.420182407,9.329007149
7271.714741149,-0.005326321,-0.018109493,-0.003195793,-0.767341673,0.410605580,9.342175484
7271.716651349,-0.005326321,0.002130529,-0.001065264,-0.767341673,0.410605580,9.342175484
7271.718744524,-0.011717907,-0.008522115,0.008522115,-0.792480767,0.398634583,9.393650055
7271.720787999,-0.008522115,-0.007456850,0.003195793,-0.792480767,0.398634583,9.393650055
7271.722807396,-0.001065264,-0.013848436,-0.004261057,-0.792480767,0.398634583,9.393650055
7271.724830729,-0.004261057,-0.014913701,-0.008522115,-0.778115571,0.415394008,9.332598686
7271.727056606,-0.004261057,-0.014913701,-0.008522115,-0.778115571,0.415394008,9.332598686
7271.728355294,-0.004261057,-0.011717907,0.001065264,-0.768538773,0.401028782,9.372102737
7271.730664676,-0.014913701,0.000000000,-0.002130529,-0.768538773,0.401028782,9.372102737
7271.732436555,0.001065264,-0.009587379,0.000000000,-0.796072066,0.410605580,9.346963882
7271.734702643,-0.019174758,0.008522115,-0.006391586,-0.796072066,0.410605580,9.346963882
7271.736681101,-0.010652643,-0.006391586,0.001065264,-0.796072066,0.410605580,9.346963882
7271.738747526,0.000000000,-0.001065264,-0.003195793,-0.815225661,0.405817181,9.324218750
7271.740725420,-0.002130529,-0.011717907,-0.004261057,-0.815225661,0.405817181,9.324218750
7271.742752646,0.002130529,-0.003195793,-0.003195793,-0.785298169,0.417788208,9.423578262
7271.744742954,0.005326321,-0.007456850,-0.002130529,-0.785298169,0.417788208,9.423578262
7271.746347155,-0.001065264,-0.008522115,-0.002130529,-0.785298169,0.417788208,9.423578262
7271.748503946,0.015978964,-0.008522115,-0.004261057,-0.775721371,0.423773706,9.352949142
7271.750747360,0.000000000,-0.018109493,-0.009587379,-0.775721371,0.423773706,9.352949142
7271.752737045,-0.004261057,-0.013848436,-0.006391586,-0.809240162,0.422576606,9.305065155
7271.754751160,0.004261057,-0.012783172,-0.006391586,-0.809240162,0.422576606,9.305065155
7271.756721289,-0.001065264,0.005326321,-0.010652643,-0.809240162,0.422576606,9.305065155
7271.758703773,-0.007456850,-0.005326321,-0.004261057,-0.787692368,0.403422982,9.370905876
7271.760731873,-0.008522115,-0.017044229,-0.002130529,-0.787692368,0.403422982,9.370905876
7271.762412818,0.002130529,-0.021305285,-0.015978964,-0.769735873,0.402225882,9.313444138
7271.764333353,-0.008522115,-0.001065264,-0.005326321,-0.769735873,0.402225882,9.313444138
7271.766335600,-0.008522115,0.000000000,0.005326321,-0.769735873,0.402225882,9.313444138
7271.768393442,-0.008522115,0.000000000,0.005326321,-0.769735873,0.402225882,9.313444138
7271.770408810,-0.008522115,-0.007456850,0.004261057,-0.754173517,0.398634583,9.337387085
7271.772344698,-0.002130529,0.001065264,-0.008522115,-0.798466265,0.404620081,9.423578262
7271.774353011,-0.002130529,-0.011717907,-0.003195793,-0.798466265,0.404620081,9.423578262
7271.776470600,-0.006391586,-0.010652643,-0.006391586,-0.798466265,0.404620081,9.423578262
7271.778383357,0.003195793,0.002130529,-0.005326321,-0.792480767,0.399831682,9.308655739
7271.780508159,-0.005326321,-0.010652643,-0.001065264,-0.792480767,0.399831682,9.308655739
7271.782230956,-0.001065264,-0.002130529,-0.002130529,-0.752976418,0.416591108,9.309853554
7271.784302367,-0.007456850,-0.021305285,-0.017044229,-0.752976418,0.416591108,9.309853554
7271.786263969,-0.005326321,-0.001065264,0.004261057,-0.752976418,0.416591108,9.309853554
7271.788315804,0.000000000,-0.018109493,-0.003195793,-0.761356115,0.407014281,9.345766068
7271.790248701,-0.006391586,-0.008522115,0.002130529,-0.761356115,0.407014281,9.345766068
7271.792308878,0.010652643,-0.022370551,-0.005326321,-0.784101069,0.412999779,9.374496460
7271.794309826,-0.007456850,0.001065264,0.000000000,-0.784101069,0.412999779,9.374496460
7271.796339089,-0.015978964,0.000000000,0.004261057,-0.784101069,0.412999779,9.374496460
7271.798406548,0.003195793,0.001065264,-0.006391586,-0.788889468,0.407014281,9.360131264
7271.800372646,0.003195793,0.006391586,0.002130529,-0.788889468,0.407014281,9.360131264
7271.802374632,-0.005326321,-0.015978964,-0.006391586,-0.761356115,0.404620081,9.373299599
7271.804717231,-0.010652643,-0.013848436,0.002130529,-0.761356115,0.404620081,9.373299599
7271.806691471,-0.006391586,-0.012783172,-0.007456850,-0.761356115,0.404620081,9.373299599
7271.808681272,0.004261057,-0.015978964,-0.011717907,-0.805648863,0.440533102,9.313444138
7271.810725011,-0.005326321,0.002130529,-0.004261057,-0.805648863,0.440533102,9.313444138
7271.812727418,-0.017044229,-0.005326321,0.002130529,-0.787692368,0.411802679,9.387664795
7271.814556911,-0.008522115,0.001065264,0.003195793,-0.787692368,0.411802679,9.387664795
7271.816291322,-0.010652643,-0.011717907,-0.006391586,-0.787692368,0.411802679,9.387664795
7271.818406174,0.001065264,-0.003195793,-0.011717907,-0.791283667,0.396240383,9.342175484
7271.820558962,-0.001065264,-0.020240022,-0.004261057,-0.791283667,0.396240383,9.342175484
7271.822546148,-0.002130529,-0.023435814,0.002130529,-0.776918471,0.416591108,9.325415611
7271.824581015,-0.006391586,-0.007456850,-0.002130529,-0.776918471,0.416591108,9.325415611
7271.826787478,0.005326321,-0.002130529,-0.008522115,-0.776918471,0.416591108,9.325415611
7271.828605818,0.007456850,-0.008522115,0.000000000,-0.781706870,0.411802679,9.385271072
7271.830516537,-0.011717907,0.000000000,-0.010652643,-0.781706870,0.411802679,9.385271072
7271.832437600,-0.002130529,-0.017044229,0.003195793,-0.772130072,0.411802679,9.380482674
7271.834424902,-0.007456850,-0.012783172,-0.011717907,-0.772130072,0.411802679,9.380482674
7271.836393179,-0.007456850,-0.015978964,0.001065264,-0.772130072,0.411802679,9.380482674
7271.838518436,-0.005326321,-0.017044229,-0.007456850,-0.790086567,0.411802679,9.319430351
7271.840504450,0.002130529,-0.012783172,0.001065264,-0.790086567,0.411802679,9.319430351
7271.842507229,0.002130529,-0.009587379,-0.001065264,-0.775721371,0.399831682,9.368511200
7271.844326142,-0.011717907,-0.004261057,-0.003195793,-0.775721371,0.399831682,9.368511200
7271.846294307,0.003195793,-0.014913701,0.007456850,-0.775721371,0.399831682,9.368511200
7271.848438194,-0.003195793,-0.011717907,-0.001065264,-0.799663365,0.389057785,9.343372345
7271.850236070,-0.002130529,-0.003195793,-0.006391586,-0.799663365,0.389057785,9.343372345
7271.852432602,-0.006391586,-0.014913701,-0.007456850,-0.768538773,0.407014281,9.301473618
7271.854433608,-0.009587379,-0.005326321,-0.008522115,-0.768538773,0.407014281,9.301473618
7271.856548452,-0.005326321,-0.017044229,0.005326321,-0.768538773,0.407014281,9.301473618
7271.858541204,-0.015978964,-0.001065264,0.001065264,-0.818816960,0.405817181,9.367314339
7271.860556835,0.011717907,-0.014913701,-0.002130529,-0.818816960,0.405817181,9.367314339
7271.862544080,-0.010652643,0.000000000,0.002130529,-0.806845963,0.415394008,9.319430351
7271.864518141,-0.010652643,0.005326321,0.007456850,-0.806845963,0.415394008,9.319430351
7271.866473640,-0.015978964,-0.012783172,0.004261057,-0.806845963,0.415394008,9.319430351
7271.868462231,-0.001065264,-0.006391586,-0.007456850,-0.796072066,0.401028782,9.404424667
7271.870556067,-0.009587379,-0.014913701,-0.008522115,-0.796072066,0.401028782,9.404424667
7271.872393211,0.000000000,-0.012783172,0.000000000,-0.767341673,0.379480958,9.320627213
7271.874529030,-0.011717907,-0.003195793,-0.002130529,-0.767341673,0.379480958,9.320627213
7271.876664575,-0.006391586,-0.006391586,-0.002130529,-0.767341673,0.379480958,9.320627213
7271.878557148,-0.015978964,-0.008522115,0.000000000,-0.778115571,0.414196908,9.334992409
7271.880324200,-0.015978964,-0.014913701,0.001065264,-0.778115571,0.414196908,9.334992409
7271.882437600,-0.002130529,-0.009587379,-0.004261057,-0.792480767,0.420182407,9.368511200
7271.884440153,-0.002130529,-0.023435814,0.006391586,-0.792480767,0.420182407,9.368511200
7271.886447060,-0.007456850,-0.009587379,-0.004261057,-0.802057564,0.429759204,9.369708061
7271.888440370,-0.009587379,-0.001065264,-0.003195793,-0.802057564,0.429759204,9.369708061
7271.890354728,0.006391586,-0.004261057,-0.008522115,-0.802057564,0.429759204,9.369708061
7271.892511317,-0.006391586,-0.001065264,-0.017044229,-0.778115571,0.424970806,9.346963882
7271.894465557,-0.009587379,-0.003195793,0.005326321,-0.778115571,0.424970806,9.346963882
7271.896381598,0.002130529,0.002130529,-0.006391586,-0.767341673,0.404620081,9.363722801
7271.898397966,-0.001065264,0.000000000,-0.003195793,-0.767341673,0.404620081,9.363722801
7271.900476827,-0.004261057,-0.014913701,-0.004261057,-0.767341673,0.404620081,9.363722801
7271.902497397,-0.001065264,-0.001065264,-0.001065264,-0.778115571,0.411802679,9.384073257
7271.904482549,-0.003195793,-0.001065264,0.003195793,-0.778115571,0.411802679,9.384073257
7271.906421469,0.001065264,-0.006391586,0.006391586,-0.780509770,0.396240383,9.344569206
7271.908345745,0.001065264,-0.007456850,-0.009587379,-0.780509770,0.396240383,9.344569206
7271.910429009,0.001065264,0.001065264,-0.005326321,-0.780509770,0.396240383,9.344569206
7271.912435082,-0.007456850,-0.011717907,-0.003195793,-0.787692368,0.385466486,9.396044731
7271.914433747,0.001065264,-0.003195793,-0.006391586,-0.787692368,0.385466486,9.396044731
7271.916511233,-0.009587379,-0.004261057,-0.004261057,-0.800860465,0.398634583,9.285911560
7271.918538816,-0.002130529,-0.003195793,-0.002130529,-0.800860465,0.398634583,9.285911560
7271.920510203,-0.001065264,-0.008522115,0.001065264,-0.800860465,0.398634583,9.285911560
7271.922553855,0.002130529,-0.003195793,-0.012783172,-0.769735873,0.404620081,9.349357605
7271.924568988,-0.009587379,-0.004261057,0.005326321,-0.769735873,0.404620081,9.349357605
7271.926405401,-0.009587379,-0.007456850,-0.008522115,-0.769735873,0.404620081,9.349357605
7271.928385552,-0.015978964,-0.001065264,-0.001065264,-0.781706870,0.411802679,9.422380447
7271.930582568,-0.008522115,-0.005326321,-0.003195793,-0.781706870,0.411802679,9.422380447
7271.932678447,-0.005326321,-0.008522115,-0.001065264,-0.763750315,0.390254885,9.317035675
7271.934699929,-0.003195793,-0.017044229,0.000000000,-0.763750315,0.390254885,9.317035675
7271.936678630,0.000000000,0.005326321,0.007456850,-0.794874966,0.411802679,9.354146004
7271.938703078,-0.004261057,-0.015978964,0.004261057,-0.794874966,0.411802679,9.354146004
7271.940465781,-0.008522115,0.000000000,0.001065264,-0.794874966,0.411802679,9.354146004
7271.942724286,-0.007456850,-0.003195793,-0.006391586,-0.792480767,0.393846184,9.348160744
7271.944396943,0.000000000,-0.017044229,0.003195793,-0.792480767,0.393846184,9.348160744
7271.946433818,-0.010652643,0.001065264,-0.012783172,-0.790086567,0.392649084,9.311050415
7271.948489481,-0.001065264,-0.013848436,-0.003195793,-0.790086567,0.392649084,9.311050415
7271.950426489,-0.009587379,0.006391586,-0.002130529,-0.790086567,0.392649084,9.311050415
7271.952621054,-0.011717907,-0.011717907,-0.004261057,-0.799663365,0.396240383,9.414001465
7271.954676156,-0.007456850,-0.007456850,-0.002130529,-0.799663365,0.396240383,9.414001465
7271.956563763,0.005326321,-0.009587379,-0.005326321,-0.772130072,0.404620081,9.336189270
7271.958596802,-0.018109493,-0.005326321,-0.002130529,-0.772130072,0.404620081,9.336189270
7271.960365852,-0.008522115,-0.003195793,-0.002130529,-0.772130072,0.404620081,9.336189270
7271.962377943,0.000000000,-0.008522115,-0.006391586,-0.774524271,0.412999779,9.332598686
7271.964419096,-0.013848436,-0.005326321,-0.004261057,-0.774524271,0.412999779,9.332598686
7271.966554286,0.004261057,-0.004261057,0.001065264,-0.778115571,0.418985307,9.372102737
7271.968727850,-0.002130529,-0.008522115,-0.015978964,-0.778115571,0.418985307,9.372102737
7271.970703808,-0.004261057,-0.002130529,0.002130529,-0.778115571,0.418985307,9.372102737
7271.972700272,-0.009587379,-0.017044229,-0.011717907,-0.774524271,0.414196908,9.325415611
7271.974706220,0.008522115,-0.012783172,-0.003195793,-0.774524271,0.414196908,9.325415611
7271.976379916,0.000000000,-0.002130529,-0.003195793,-0.774524271,0.414196908,9.325415611
7271.978481649,-0.001065264,-0.018109493,-0.006391586,-0.791283667,0.397437483,9.352949142
7271.980487994,-0.012783172,0.002130529,-0.004261057,-0.791283667,0.397437483,9.352949142
7271.982534196,0.001065264,-0.017044229,-0.010652643,-0.781706870,0.395043284,9.423578262
7271.984395330,-0.001065264,0.003195793,-0.005326321,-0.781706870,0.395043284,9.423578262
7271.986433886,0.008522115,-0.009587379,-0.002130529,-0.791283667,0.422576606,9.308655739
7271.988293313,-0.002130529,-0.009587379,0.004261057,-0.791283667,0.422576606,9.308655739
7271.990314786,-0.008522115,-0.005326321,-0.002130529,-0.791283667,0.422576606,9.308655739
7271.992425310,-0.014913701,-0.010652643,0.007456850,-0.804451764,0.442927301,9.376891136
7271.994382002,-0.003195793,-0.009587379,-0.003195793,-0.804451764,0.442927301,9.376891136
7271.996391225,-0.006391586,-0.017044229,-0.001065264,-0.792480767,0.390254885,9.331400871
7271.998461827,-0.015978964,-0.002130529,-0.002130529,-0.792480767,0.390254885,9.331400871
7272.000480471,-0.003195793,-0.006391586,-0.005326321,-0.792480767,0.390254885,9.331400871
7272.002449980,0.000000000,-0.009587379,0.007456850,-0.786495268,0.390254885,9.307458878
7272.004492018,0.002130529,-0.006391586,0.003195793,-0.786495268,0.390254885,9.307458878
7272.006458579,-0.021305285,-0.001065264,-0.002130529,-0.800860465,0.397437483,9.361329079
7272.008470413,0.005326321,-0.012783172,-0.006391586,-0.800860465,0.397437483,9.361329079
7272.010465120,0.000000000,-0.014913701,-0.004261057,-0.800860465,0.397437483,9.361329079
7272.012381668,-0.002130529,-0.010652643,-0.003195793,-0.791283667,0.396240383,9.406818390
7272.014466856,-0.005326321,0.003195793,-0.003195793,-0.791283667,0.396240383,9.406818390
7272.016470869,-0.005326321,-0.010652643,-0.001065264,-0.779312670,0.399831682,9.356540680
7272.018406768,-0.009587379,-0.008522115,-0.002130529,-0.779312670,0.399831682,9.356540680
7272.020469323,-0.012783172,-0.010652643,0.011717907,-0.779312670,0.399831682,9.356540680
7272.022472494,-0.004261057,-0.007456850,-0.006391586,-0.762553215,0.387860686,9.356540680
7272.024452638,-0.007456850,-0.005326321,0.003195793,-0.762553215,0.387860686,9.356540680
7272.026442514,-0.001065264,-0.006391586,-0.010652643,-0.762553215,0.387860686,9.356540680
7272.028449751,0.008522115,-0.004261057,0.001065264,-0.784101069,0.395043284,9.358934402
7272.030357058,-0.020240022,-0.012783172,-0.001065264,-0.784101069,0.395043284,9.358934402
7272.032481192,-0.002130529,-0.012783172,-0.008522115,-0.818816960,0.404620081,9.351752281
7272.034438510,0.001065264,-0.012783172,-0.008522115,-0.818816960,0.404620081,9.351752281
7272.036440070,-0.006391586,-0.005326321,0.005326321,-0.800860465,0.384269387,9.396044731
7272.038395868,-0.004261057,-0.013848436,-0.010652643,-0.800860465,0.384269387,9.396044731
7272.040471006,-0.013848436,-0.009587379,-0.010652643,-0.778115571,0.387860686,9.352949142
7272.042486170,-0.003195793,-0.007456850,0.002130529,-0.778115571,0.387860686,9.352949142
7272.044461495,-0.003195793,-0.015978964,-0.005326321,-0.778115571,0.387860686,9.352949142
7272.046472820,-0.002130529,-0.007456850,-0.003195793,-0.780509770,0.404620081,9.320627213
7272.048350662,0.006391586,-0.006391586,-0.003195793,-0.780509770,0.404620081,9.320627213
7272.050446243,-0.013848436,-0.002130529,-0.002130529,-0.794874966,0.391451985,9.406818390
7272.052468127,-0.013848436,-0.010652643,-0.007456850,-0.794874966,0.391451985,9.406818390
7272.054390343,0.000000000,-0.004261057,-0.003195793,-0.794874966,0.391451985,9.406818390
7272.056468774,-0.002130529,-0.011717907,-0.006391586,-0.751779318,0.401028782,9.309853554
7272.058456163,0.002130529,-0.019174758,0.003195793,-0.751779318,0.401028782,9.309853554
7272.060450897,-0.007456850,-0.005326321,-0.002130529,-0.764947414,0.399831682,9.357737541
7272.062452813,-0.012783172,-0.010652643,-0.003195793,-0.764947414,0.399831682,9.357737541
7272.064357006,-0.004261057,-0.004261057,-0.007456850,-0.764947414,0.399831682,9.357737541
7272.066458813,-0.004261057,-0.002130529,0.003195793,-0.796072066,0.392649084,9.343372345
7272.068493715,-0.003195793,-0.024501080,-0.009587379,-0.796072066,0.392649084,9.343372345
7272.070441022,-0.001065264,-0.006391586,-0.004261057,-0.803254664,0.402225882,9.321824074
7272.072381725,-0.013848436,-0.005326321,-0.002130529,-0.803254664,0.402225882,9.321824074
7272.074380743,0.000000000,-0.004261057,0.003195793,-0.803254664,0.402225882,9.321824074
7272.076672005,-0.005326321,-0.022370551,-0.011717907,-0.787692368,0.407014281,9.384073257
7272.078470406,-0.008522115,-0.012783172,0.003195793,-0.787692368,0.407014281,9.384073257
7272.080457991,0.002130529,-0.010652643,0.003195793,-0.782903969,0.389057785,9.367314339
7272.082353244,-0.006391586,0.005326321,0.008522115,-0.782903969,0.389057785,9.367314339
7272.084333271,-0.001065264,-0.006391586,-0.011717907,-0.782903969,0.389057785,9.367314339
7272.086465787,-0.001065264,-0.009587379,-0.005326321,-0.797269166,0.411802679,9.294290543
7272.088465374,-0.001065264,-0.009587379,-0.005326321,-0.797269166,0.411802679,9.294290543
7272.090467342,-0.007456850,-0.008522115,-0.002130529,-0.782903969,0.422576606,9.373299599
7272.092398474,-0.004261057,-0.013848436,0.002130529,-0.782903969,0.422576606,9.373299599
7272.094302507,-0.010652643,-0.005326321,-0.001065264,-0.782903969,0.422576606,9.373299599
7272.096346702,-0.003195793,-0.001065264,-0.006391586,-0.805648863,0.401028782,9.342175484
7272.098359762,-0.006391586,-0.008522115,-0.007456850,-0.805648863,0.401028782,9.342175484
7272.100372987,-0.008522115,-0.004261057,0.008522115,-0.761356115,0.404620081,9.308655739
7272.102366934,-0.018109493,-0.008522115,0.002130529,-0.761356115,0.404620081,9.308655739
