t_sys,quat_w,quat_x,quat_y,quat_z,gyro_x,gyro_y,gyro_z,acc_x,acc_y,acc_z,rpy_r,rpy_p,rpy_y
3867.939967,0.99997139,0.00254343,-0.00706147,-0.00090174,0.00213053,-0.01171791,-0.01171791,-0.11851298,-0.25737667,9.34097767,0.00509999,-0.01411842,-0.00183954
3867.941454,0.99997139,0.00255211,-0.00706381,-0.00091087,0.00426106,-0.01171791,-0.01171791,-0.11851298,-0.25737667,9.34097767,0.00511748,-0.01412304,-0.00185793
3867.943390,0.99997145,0.00254751,-0.00705871,-0.00091779,-0.01065264,0.00106526,-0.01597896,-0.11851298,-0.25737667,9.34097767,0.00510836,-0.01411280,-0.00187169
3867.945469,0.99997127,0.00256406,-0.00706827,-0.00093226,0.01384844,-0.01597896,-0.01704423,-0.10414778,-0.20709845,9.31703568,0.00514169,-0.01413183,-0.00190090
3867.947093,0.99997127,0.00256712,-0.00707114,-0.00093704,-0.00532632,-0.00319579,-0.00852211,-0.10414778,-0.20709845,9.31703568,0.00514788,-0.01413753,-0.00191052
3867.949083,0.99997121,0.00257419,-0.00707191,-0.00094618,0.01278317,-0.01065264,-0.02024002,-0.05626374,-0.14724341,9.33618927,0.00516216,-0.01413901,-0.00192891
3867.951059,0.99997115,0.00259323,-0.00707318,-0.00096028,0.00745685,-0.00745685,-0.00213053,-0.05626374,-0.14724341,9.33618927,0.00520043,-0.01414143,-0.00195738
3867.953060,0.99997115,0.00259250,-0.00707424,-0.00096662,-0.00639159,-0.00532632,-0.00958738,-0.09696517,-0.12210429,9.36731434,0.00519907,-0.01414353,-0.00197007
3867.955069,0.99997121,0.00258931,-0.00706861,-0.00096931,-0.00852211,0.00213053,-0.00745685,-0.09696517,-0.12210429,9.36731434,0.00519271,-0.01413227,-0.00197538
3867.957066,0.99997121,0.00258541,-0.00706861,-0.00097135,-0.00213053,-0.01384844,0.00319579,-0.09696517,-0.12210429,9.36731434,0.00518494,-0.01413226,-0.00197940
3867.959069,0.99997115,0.00258341,-0.00706734,-0.00097078,-0.00532632,-0.00213053,0.00319579,-0.07781155,-0.05386954,9.33259869,0.00518094,-0.01412972,-0.00197823
3867.961115,0.99997121,0.00258054,-0.00706254,-0.00098144,-0.00426106,-0.00852211,-0.00532632,-0.07781155,-0.05386954,9.33259869,0.00517534,-0.01412007,-0.00199947
3867.963189,0.99997121,0.00257968,-0.00706189,-0.00098034,-0.00958738,-0.00745685,-0.00426106,-0.03711013,-0.09457096,9.28950214,0.00517360,-0.01411878,-0.00199726
3867.965177,0.99997127,0.00257203,-0.00706455,-0.00097483,-0.00319579,-0.02130529,-0.00213053,-0.03711013,-0.09457096,9.28950214,0.00515823,-0.01412414,-0.00198615
3867.967176,0.99997127,0.00257057,-0.00706332,-0.00097588,-0.00639159,-0.00639159,-0.00426106,-0.03711013,-0.09457096,9.28950214,0.00515532,-0.01412169,-0.00198822
3867.969291,0.99997127,0.00256928,-0.00706842,-0.00097683,0.00319579,-0.01384844,-0.00532632,-0.02873042,-0.11851298,9.38287640,0.00515276,-0.01413189,-0.00199012
3867.971156,0.99997133,0.00256225,-0.00706296,-0.00097570,-0.00426106,-0.00319579,0.00426106,-0.02873042,-0.11851298,9.38287640,0.00513866,-0.01412099,-0.00198774
3867.973101,0.99997127,0.00256608,-0.00706140,-0.00097684,0.00426106,-0.00532632,-0.00426106,-0.02873042,-0.11851298,9.38287640,0.00514634,-0.01411786,-0.00199006
3867.975163,0.99997127,0.00256692,-0.00706904,-0.00096925,0.00426106,-0.00745685,0.00213053,-0.00957681,-0.22385786,9.32062721,0.00514793,-0.01413317,-0.00197494
3867.977165,0.99997121,0.00257917,-0.00706979,-0.00095930,0.00213053,-0.00639159,0.01278317,-0.00957681,-0.22385786,9.32062721,0.00517229,-0.01413469,-0.00195520
3867.979324,0.99997115,0.00258633,-0.00707199,-0.00095031,0.01171791,-0.01278317,0.01597896,-0.02513912,-0.19871874,9.27872849,0.00518650,-0.01413913,-0.00193734
3867.981503,0.99997109,0.00261049,-0.00708158,-0.00094200,0.01810949,-0.00745685,0.00106526,-0.02513912,-0.19871874,9.27872849,0.00523473,-0.01415830,-0.00192111
3867.983445,0.99997109,0.00262278,-0.00707456,-0.00093855,0.00639159,-0.00639159,-0.00532632,0.00239420,-0.11611878,9.35294914,0.00525924,-0.01414426,-0.00191436
3867.985435,0.99997103,0.00262877,-0.00707959,-0.00093431,0.00958738,-0.01810949,0.00639159,0.00239420,-0.11611878,9.35294914,0.00527118,-0.01415432,-0.00190597
3867.987431,0.99997097,0.00263432,-0.00708357,-0.00091781,0.00106526,-0.00532632,0.00958738,0.00239420,-0.11611878,9.35294914,0.00528204,-0.01416237,-0.00187307
3867.989364,0.99997109,0.00261659,-0.00708094,-0.00091118,-0.00958738,-0.01810949,0.01065264,-0.03471592,-0.02513912,9.30386734,0.00524648,-0.01415718,-0.00185954
3867.991420,0.99997109,0.00260983,-0.00708167,-0.00090307,-0.01704423,-0.00958738,0.01384844,-0.03471592,-0.02513912,9.30386734,0.00523285,-0.01415868,-0.00184323
3867.993431,0.99997121,0.00258663,-0.00708127,-0.00089151,-0.03089266,0.00213053,0.01384844,-0.03950433,-0.10893618,9.33499241,0.00518629,-0.01415799,-0.00181979
3867.995445,0.99997127,0.00256531,-0.00707581,-0.00088593,-0.02024002,-0.00532632,0.00213053,-0.03950433,-0.10893618,9.33499241,0.00514355,-0.01414714,-0.00180829
3867.997407,0.99997127,0.00255644,-0.00708031,-0.00088678,-0.02130529,-0.01704423,-0.00426106,-0.03950433,-0.10893618,9.33499241,0.00512583,-0.01415616,-0.00180990
3867.999410,0.99997133,0.00254674,-0.00707880,-0.00087598,-0.01171791,-0.00745685,0.00958738,0.00957681,-0.21667525,9.30626202,0.00510626,-0.01415320,-0.00178815
3868.001401,0.99997133,0.00254850,-0.00708005,-0.00087705,0.00745685,-0.00639159,-0.00532632,0.00957681,-0.21667525,9.30626202,0.00510981,-0.01415570,-0.00179031
3868.003506,0.99997133,0.00255510,-0.00708101,-0.00087873,0.01065264,-0.00958738,-0.00532632,0.00957681,-0.21667525,9.30626202,0.00512304,-0.01415760,-0.00179377
3868.005455,0.99997115,0.00257918,-0.00708231,-0.00087961,0.01810949,-0.00426106,0.00213053,0.00119710,-0.33399114,9.35773754,0.00517122,-0.01416015,-0.00179588
3868.007483,0.99997115,0.00259528,-0.00708263,-0.00087453,0.01491370,-0.01384844,-0.00745685,0.00119710,-0.33399114,9.35773754,0.00520334,-0.01416078,-0.00178594
3868.009461,0.99997115,0.00259629,-0.00708627,-0.00087502,0.00106526,-0.01491370,-0.00319579,-0.02992752,-0.22385786,9.30027676,0.00520537,-0.01416806,-0.00178697
3868.011253,0.99997109,0.00261315,-0.00708484,-0.00087744,0.00532632,0.00958738,-0.00532632,-0.02992752,-0.22385786,9.30027676,0.00523914,-0.01416516,-0.00179204
3868.013308,0.99997109,0.00261055,-0.00708924,-0.00087841,-0.01171791,-0.01704423,-0.00639159,-0.08140286,-0.06224924,9.30745888,0.00523395,-0.01417396,-0.00179396
3868.015425,0.99997109,0.00261187,-0.00708524,-0.00088009,0.00106526,0.00000000,-0.00532632,-0.08140286,-0.06224924,9.30745888,0.00523661,-0.01416594,-0.00179731
3868.017473,0.99997115,0.00261649,-0.00707998,-0.00089461,-0.00319579,-0.00213053,-0.00958738,-0.08140286,-0.06224924,9.30745888,0.00524604,-0.01415534,-0.00182639
3868.019650,0.99997115,0.00261605,-0.00708061,-0.00089991,-0.00319579,-0.00958738,-0.01278317,-0.09935937,-0.11731588,9.36132908,0.00524524,-0.01415658,-0.00183700
3868.021386,0.99997115,0.00260495,-0.00707464,-0.00090886,-0.00852211,-0.00106526,-0.00639159,-0.09935937,-0.11731588,9.36132908,0.00522315,-0.01414461,-0.00185472
3868.023355,0.99997115,0.00259913,-0.00707115,-0.00091573,-0.01278317,-0.00213053,-0.01065264,-0.12569559,-0.09935937,9.36611748,0.00521160,-0.01413761,-0.00186836
3868.025356,0.99997133,0.00258122,-0.00706532,-0.00092351,-0.02024002,0.00000000,-0.00852211,-0.12569559,-0.09935937,9.36611748,0.00517587,-0.01412593,-0.00188364
3868.027260,0.99997139,0.00257250,-0.00705451,-0.00093151,-0.01065264,0.00319579,-0.01384844,-0.12569559,-0.09935937,9.36611748,0.00515853,-0.01410430,-0.00189945
3868.029342,0.99997139,0.00256669,-0.00705382,-0.00093673,-0.01491370,-0.01065264,-0.00426106,-0.06703765,-0.23582886,9.32661247,0.00514699,-0.01410290,-0.00190981
3868.031209,0.99997145,0.00256586,-0.00704840,-0.00093997,-0.00852211,-0.00213053,-0.00319579,-0.06703765,-0.23582886,9.32661247,0.00514537,-0.01409203,-0.00191626
3868.033486,0.99997133,0.00256998,-0.00705955,-0.00094358,0.00000000,-0.02663161,-0.01065264,-0.06943185,-0.27653030,9.36013126,0.00515368,-0.01411432,-0.00192359
3868.035370,0.99997133,0.00257408,-0.00705653,-0.00095753,0.00958738,-0.00426106,-0.01917476,-0.06943185,-0.27653030,9.36013126,0.00516206,-0.01410819,-0.00195152
3868.037501,0.99997127,0.00258544,-0.00705663,-0.00096674,0.01384844,-0.01491370,-0.00958738,-0.10295067,-0.20829555,9.32182407,0.00518491,-0.01410833,-0.00197011
3868.039249,0.99997127,0.00259251,-0.00705631,-0.00096685,0.01278317,-0.00852211,-0.00213053,-0.10295067,-0.20829555,9.32182407,0.00519906,-0.01410767,-0.00197042
3868.041176,0.99997127,0.00260455,-0.00704894,-0.00097511,0.00745685,-0.00213053,-0.01384844,-0.10295067,-0.20829555,9.32182407,0.00522324,-0.01409287,-0.00198708
3868.043483,0.99997121,0.00261111,-0.00705883,-0.00097398,0.00852211,-0.01810949,0.00426106,-0.08379706,-0.07541735,9.38287640,0.00523637,-0.01411263,-0.00198496
3868.045430,0.99997127,0.00260853,-0.00705117,-0.00097510,-0.01597896,0.00106526,-0.00426106,-0.08379706,-0.07541735,9.38287640,0.00523120,-0.01409731,-0.00198712
3868.047360,0.99997121,0.00260945,-0.00705852,-0.00098084,-0.00213053,-0.02237055,-0.00426106,-0.07422026,-0.05865794,9.35175228,0.00523314,-0.01411199,-0.00199866
3868.049195,0.99997133,0.00260447,-0.00703917,-0.00097943,-0.01810949,0.01278317,-0.00319579,-0.07422026,-0.05865794,9.35175228,0.00522313,-0.01407331,-0.00199566
3868.051327,0.99997139,0.00260025,-0.00703403,-0.00097783,-0.01171791,0.00106526,0.00106526,-0.07422026,-0.05865794,9.35175228,0.00521464,-0.01406304,-0.00199238
3868.053453,0.99997139,0.00258461,-0.00703852,-0.00097855,-0.00639159,-0.00745685,-0.01278317,-0.04908114,-0.07062895,9.28112316,0.00518338,-0.01407203,-0.00199362
3868.055471,0.99997145,0.00257927,-0.00703695,-0.00097313,-0.01171791,-0.01171791,-0.00106526,-0.04908114,-0.07062895,9.28112316,0.00517262,-0.01406894,-0.00198271
3868.057447,0.99997145,0.00257900,-0.00703517,-0.00097314,-0.00426106,-0.00532632,-0.00213053,-0.04908114,-0.07062895,9.28112316,0.00517208,-0.01406539,-0.00198271
3868.059470,0.99997133,0.00257769,-0.00705426,-0.00095841,-0.01384844,-0.01597896,0.01704423,-0.04788403,-0.12689269,9.34576607,0.00516929,-0.01410363,-0.00195333
3868.061466,0.99997133,0.00258107,-0.00705678,-0.00095628,0.00319579,-0.01384844,0.00213053,-0.04788403,-0.12689269,9.34576607,0.00517603,-0.01410870,-0.00194914
3868.063499,0.99997127,0.00258859,-0.00706579,-0.00096050,0.00426106,-0.02130529,0.00106526,-0.00718261,-0.23343466,9.40322685,0.00519115,-0.01412666,-0.00195773
3868.065386,0.99997127,0.00259447,-0.00705731,-0.00095111,0.01917476,-0.00639159,0.00532632,-0.00718261,-0.23343466,9.40322685,0.00520275,-0.01410974,-0.00193897
3868.067496,0.99997133,0.00260558,-0.00704883,-0.00093275,0.00426106,0.00106526,0.02130529,-0.01915361,-0.22385786,9.29309368,0.00522471,-0.01409285,-0.00190236
3868.069452,0.99997133,0.00260558,-0.00704883,-0.00093275,0.00426106,0.00106526,0.02130529,-0.01915361,-0.22385786,9.29309368,0.00522471,-0.01409285,-0.00190236
3868.071457,0.99997133,0.00262952,-0.00704400,-0.00091079,0.00745685,-0.00213053,0.00319579,-0.01915361,-0.22385786,9.29309368,0.00527226,-0.01408328,-0.00185877
3868.073445,0.99997121,0.00263234,-0.00705074,-0.00089901,0.00213053,-0.01278317,0.00745685,-0.00837971,-0.08020575,9.37090588,0.00527776,-0.01409682,-0.00183528
3868.075433,0.99997127,0.00263291,-0.00705114,-0.00088516,-0.00426106,0.00000000,0.01171791,-0.00837971,-0.08020575,9.37090588,0.00527871,-0.01409767,-0.00180757
3868.077433,0.99997127,0.00263218,-0.00705326,-0.00087658,-0.00852211,-0.01171791,0.01171791,-0.01197101,-0.00957681,9.33978081,0.00527712,-0.01410197,-0.00179042
3868.079146,0.99997127,0.00263546,-0.00704983,-0.00087348,0.00319579,-0.00106526,0.00426106,-0.01197101,-0.00957681,9.33978081,0.00528363,-0.01409512,-0.00178425
3868.081459,0.99997127,0.00263061,-0.00705471,-0.00086799,-0.00426106,-0.01704423,0.00106526,-0.01197101,-0.00957681,9.33978081,0.00527387,-0.01410493,-0.00177323
3868.083458,0.99997139,0.00261146,-0.00705231,-0.00085546,-0.02024002,0.00213053,0.00213053,-0.05027824,-0.13646950,9.34456921,0.00523538,-0.01410021,-0.00174788
3868.085474,0.99997139,0.00259379,-0.00705169,-0.00085146,-0.01384844,-0.01384844,-0.00106526,-0.05027824,-0.13646950,9.34456921,0.00519999,-0.01409902,-0.00173962
3868.087476,0.99997139,0.00257964,-0.00705055,-0.00084965,-0.01491370,-0.00639159,-0.00745685,0.02154781,-0.19393034,9.31943035,0.00517164,-0.01409678,-0.00173579
3868.089382,0.99997163,0.00257057,-0.00703675,-0.00084225,-0.01065264,0.00426106,0.00532632,0.02154781,-0.19393034,9.31943035,0.00515338,-0.01406924,-0.00172080
3868.091333,0.99997151,0.00257240,-0.00703913,-0.00083584,0.00319579,-0.01065264,0.00532632,0.02154781,-0.19393034,9.31943035,0.00515695,-0.01407402,-0.00170802
3868.093516,0.99997151,0.00258055,-0.00704008,-0.00083382,0.01384844,-0.00958738,0.00213053,-0.01915361,-0.30526072,9.35534286,0.00517322,-0.01407591,-0.00170409
3868.095415,0.99997151,0.00259118,-0.00703822,-0.00083774,0.00319579,0.00000000,-0.00426106,-0.01915361,-0.30526072,9.35534286,0.00519454,-0.01407216,-0.00171208
3868.097426,0.99997145,0.00260455,-0.00704551,-0.00084530,0.00958738,-0.01704423,-0.00639159,-0.05267244,-0.27293900,9.32421875,0.00522141,-0.01408668,-0.00172742
3868.099468,0.99997133,0.00262147,-0.00704460,-0.00084877,0.01597896,-0.00639159,-0.01384844,-0.05267244,-0.27293900,9.32421875,0.00525529,-0.01408481,-0.00173460
3868.101326,0.99997139,0.00263665,-0.00703924,-0.00084802,0.01597896,-0.00319579,0.00106526,-0.05267244,-0.27293900,9.32421875,0.00528563,-0.01407407,-0.00173328
3868.103377,0.99997145,0.00263767,-0.00703256,-0.00085133,0.00106526,0.00532632,-0.00852211,-0.06823475,-0.08020575,9.28710842,0.00528770,-0.01406069,-0.00173989
3868.105261,0.99997133,0.00265038,-0.00704080,-0.00084873,0.01171791,-0.01597896,0.00000000,-0.06823475,-0.08020575,9.28710842,0.00531311,-0.01407717,-0.00173492
3868.107235,0.99997133,0.00265074,-0.00703991,-0.00084928,-0.00639159,-0.00319579,0.00213053,-0.06823475,-0.08020575,9.28710842,0.00531385,-0.01407537,-0.00173600
3868.109271,0.99997127,0.00263914,-0.00704500,-0.00086500,-0.01384844,-0.01278317,-0.02024002,-0.06584055,-0.04309563,9.37689114,0.00529086,-0.01408549,-0.00176731
3868.111473,0.99997139,0.00262973,-0.00704136,-0.00087287,-0.01278317,-0.00106526,-0.00426106,-0.06584055,-0.04309563,9.37689114,0.00527214,-0.01407819,-0.00178291
3868.113515,0.99997139,0.00262235,-0.00703850,-0.00087225,-0.01171791,-0.00745685,0.00000000,-0.10055647,-0.10893618,9.37808800,0.00525737,-0.01407248,-0.00178154
3868.115459,0.99997139,0.00261697,-0.00703949,-0.00087853,-0.01384844,-0.01065264,-0.01491370,-0.10055647,-0.10893618,9.37808800,0.00524671,-0.01407445,-0.00179404
3868.117390,0.99997151,0.00260299,-0.00702836,-0.00089390,-0.01171791,0.00319579,-0.00639159,-0.12808979,-0.21188685,9.31943035,0.00521893,-0.01405213,-0.00182452
3868.119861,0.99997151,0.00260124,-0.00702538,-0.00089550,-0.00639159,-0.00319579,-0.00532632,-0.12808979,-0.21188685,9.31943035,0.00521545,-0.01404617,-0.00182768
3868.121414,0.99997139,0.00261177,-0.00702869,-0.00091635,0.00319579,-0.00639159,-0.01171791,-0.12808979,-0.21188685,9.31943035,0.00523682,-0.01405265,-0.00186955
3868.123412,0.99997145,0.00261483,-0.00703166,-0.00092699,-0.00852211,-0.00745685,-0.01384844,-0.09097967,-0.25737667,9.30506516,0.00524309,-0.01405853,-0.00189088
3868.125358,0.99997139,0.00262078,-0.00703671,-0.00093337,0.01278317,-0.01810949,-0.01278317,-0.09097967,-0.25737667,9.30506516,0.00525510,-0.01406859,-0.00190377
3868.127346,0.99997133,0.00263136,-0.00703581,-0.00093247,0.01810949,-0.01597896,-0.00639159,-0.09217677,-0.25378537,9.32302189,0.00527623,-0.01406676,-0.00190209
3868.129386,0.99997127,0.00263993,-0.00703455,-0.00094325,0.00958738,-0.01171791,-0.01491370,-0.09217677,-0.25378537,9.32302189,0.00529353,-0.01406417,-0.00192379
3868.131379,0.99997133,0.00265262,-0.00702793,-0.00095152,0.00639159,0.00319579,-0.01065264,-0.09217677,-0.25378537,9.32302189,0.00531902,-0.01405088,-0.00194047
3868.133390,0.99997127,0.00265503,-0.00702856,-0.00094993,0.00319579,-0.01704423,0.00000000,-0.11611878,-0.13287820,9.31703568,0.00532382,-0.01405212,-0.00193733
3868.135426,0.99997121,0.00265820,-0.00703875,-0.00095301,-0.00426106,-0.01704423,-0.00852211,-0.11611878,-0.13287820,9.31703568,0.00533021,-0.01407250,-0.00194358
3868.137449,0.99997127,0.00265800,-0.00703564,-0.00095942,-0.00319579,-0.00106526,-0.00745685,-0.09337386,0.01915361,9.38167953,0.00532991,-0.01406623,-0.00195638
3868.139310,0.99997127,0.00265436,-0.00703307,-0.00096470,-0.00426106,-0.00745685,-0.00745685,-0.09337386,0.01915361,9.38167953,0.00532268,-0.01406109,-0.00196688
3868.141368,0.99997133,0.00264666,-0.00703097,-0.00096299,-0.02237055,0.00532632,0.00319579,-0.09337386,0.01915361,9.38167953,0.00530726,-0.01405690,-0.00196333
3868.143264,0.99997139,0.00263226,-0.00702687,-0.00096333,-0.01491370,-0.00639159,-0.00532632,-0.06584055,-0.07062895,9.37928486,0.00527845,-0.01404873,-0.00196379
3868.145424,0.99997139,0.00262856,-0.00702614,-0.00096698,-0.00426106,-0.01278317,0.00000000,-0.06584055,-0.07062895,9.37928486,0.00527111,-0.01404726,-0.00197103
3868.147378,0.99997133,0.00262496,-0.00702970,-0.00096364,-0.00106526,-0.00745685,0.00426106,-0.02513912,-0.16160862,9.28591156,0.00526387,-0.01405441,-0.00196432
3868.149449,0.99997139,0.00262326,-0.00703291,-0.00095661,-0.00532632,-0.01384844,0.00532632,-0.02513912,-0.16160862,9.28591156,0.00526038,-0.01406086,-0.00195026
3868.151422,0.99997139,0.00262819,-0.00703264,-0.00095400,-0.00532632,-0.00958738,-0.00106526,-0.02513912,-0.16160862,9.28591156,0.00527020,-0.01406033,-0.00194511
3868.153390,0.99997133,0.00264315,-0.00703732,-0.00095627,0.01278317,-0.01278317,0.00106526,-0.05267244,-0.27653030,9.34576607,0.00530017,-0.01406964,-0.00194989
3868.155545,0.99997127,0.00265081,-0.00704291,-0.00094724,0.00532632,-0.01597896,0.00319579,-0.05267244,-0.27653030,9.34576607,0.00531535,-0.01408086,-0.00193195
3868.157420,0.99997127,0.00265819,-0.00704012,-0.00094259,0.01278317,-0.00319579,0.00745685,-0.05267244,-0.27653030,9.34576607,0.00533006,-0.01407529,-0.00192275
3868.159466,0.99997109,0.00266579,-0.00705015,-0.00093029,0.00426106,-0.01704423,0.00852211,-0.01316811,-0.20590134,9.30865574,0.00534510,-0.01409539,-0.00189831
3868.161463,0.99997115,0.00268140,-0.00703964,-0.00092375,0.01171791,0.00745685,0.00426106,-0.01316811,-0.20590134,9.30865574,0.00537621,-0.01407438,-0.00188539
3868.163529,0.99997115,0.00268815,-0.00704356,-0.00090728,0.00213053,-0.01597896,0.01065264,0.01436521,-0.16759412,9.34097767,0.00538948,-0.01408229,-0.00185256
3868.165424,0.99997109,0.00269766,-0.00705190,-0.00088919,0.00852211,-0.00958738,0.02130529,0.01436521,-0.16759412,9.34097767,0.00540827,-0.01409906,-0.00181655
3868.167353,0.99997121,0.00269301,-0.00704180,-0.00087488,-0.00532632,-0.00958738,0.00426106,0.00957681,0.00119710,9.38167953,0.00539874,-0.01407894,-0.00178781
3868.169555,0.99997115,0.00269261,-0.00704604,-0.00088120,-0.00319579,-0.01597896,-0.01491370,0.00957681,0.00119710,9.38167953,0.00539804,-0.01408740,-0.00180048
3868.171218,0.99997127,0.00266571,-0.00704502,-0.00086322,-0.02876214,-0.00426106,0.01171791,0.00957681,0.00119710,9.38167953,0.00534399,-0.01408551,-0.00176412
3868.173425,0.99997121,0.00265482,-0.00704954,-0.00086084,-0.01278317,-0.01384844,-0.00106526,-0.05147533,-0.11252748,9.38766479,0.00532218,-0.01409457,-0.00175924
3868.175173,0.99997127,0.00264908,-0.00704883,-0.00086129,-0.01491370,-0.00639159,-0.00319579,-0.05147533,-0.11252748,9.38766479,0.00531071,-0.01409317,-0.00176006
3868.177435,0.99997127,0.00263250,-0.00705172,-0.00085086,-0.01278317,-0.01171791,0.00532632,-0.00119710,-0.16519992,9.31344414,0.00527740,-0.01409902,-0.00173896
3868.179468,0.99997139,0.00262395,-0.00704388,-0.00085083,-0.00639159,0.00213053,0.00106526,-0.00119710,-0.16519992,9.31344414,0.00526029,-0.01408336,-0.00173876
3868.181467,0.99997145,0.00261909,-0.00703600,-0.00084234,-0.00745685,-0.00426106,0.00532632,-0.00119710,-0.16519992,9.31344414,0.00525043,-0.01406764,-0.00172167
3868.183452,0.99997151,0.00261832,-0.00702778,-0.00084139,-0.00213053,0.00639159,0.00106526,0.00598550,-0.31004912,9.33499241,0.00524885,-0.01405121,-0.00171970
3868.185440,0.99997145,0.00262436,-0.00703403,-0.00084086,0.01384844,-0.01917476,-0.00532632,0.00598550,-0.31004912,9.33499241,0.00526095,-0.01406370,-0.00171875
3868.187451,0.99997139,0.00263629,-0.00703440,-0.00083837,0.02237055,-0.00852211,0.00319579,-0.06823475,-0.30406362,9.34456921,0.00528477,-0.01406445,-0.00171395
3868.189461,0.99997139,0.00265218,-0.00703636,-0.00083806,0.01065264,-0.00745685,0.00319579,-0.06823475,-0.30406362,9.34456921,0.00531655,-0.01406834,-0.00171356
3868.191451,0.99997133,0.00266352,-0.00703473,-0.00084625,0.01704423,0.00000000,-0.01384844,-0.07541735,-0.09935937,9.27513695,0.00533934,-0.01406500,-0.00173009
3868.193258,0.99997133,0.00266960,-0.00703444,-0.00084954,0.01384844,-0.00958738,0.00000000,-0.07541735,-0.09935937,9.27513695,0.00535155,-0.01406441,-0.00173676
3868.195430,0.99997139,0.00267131,-0.00703031,-0.00085335,0.00000000,0.00000000,-0.00532632,-0.07541735,-0.09935937,9.27513695,0.00535502,-0.01405611,-0.00174438
3868.197392,0.99997133,0.00266773,-0.00702990,-0.00085702,-0.00852211,-0.00958738,-0.00426106,-0.03711013,-0.03232172,9.35294914,0.00534790,-0.01405529,-0.00175166
3868.199342,0.99997127,0.00266726,-0.00703866,-0.00086485,0.00000000,-0.00745685,-0.00958738,-0.03711013,-0.03232172,9.35294914,0.00534709,-0.01407277,-0.00176738
3868.201389,0.99997133,0.00265328,-0.00703569,-0.00087373,-0.01597896,-0.01384844,-0.01171791,-0.09457096,-0.10654198,9.38527107,0.00531925,-0.01406679,-0.00178491
3868.203413,0.99997139,0.00263833,-0.00704100,-0.00087979,-0.01810949,-0.00532632,-0.00745685,-0.09457096,-0.10654198,9.38527107,0.00528945,-0.01407742,-0.00179687
3868.205385,0.99997139,0.00262826,-0.00703823,-0.00088020,-0.02343581,-0.00319579,-0.00319579,-0.09457096,-0.10654198,9.38527107,0.00526930,-0.01407189,-0.00179753
3868.207489,0.99997151,0.00261155,-0.00702132,-0.00089508,-0.01917476,0.00000000,-0.01278317,-0.12210429,-0.17238252,9.32661247,0.00523606,-0.01403803,-0.00182697
3868.209475,0.99997163,0.00261061,-0.00701498,-0.00090632,0.00213053,0.00426106,-0.01384844,-0.12210429,-0.17238252,9.32661247,0.00523433,-0.01402528,-0.00184941
3868.211446,0.99997157,0.00261142,-0.00701466,-0.00091112,-0.00106526,-0.00852211,-0.01171791,-0.12210429,-0.17238252,9.32661247,0.00523601,-0.01402462,-0.00185901
3868.213435,0.99997151,0.00261116,-0.00701841,-0.00092168,-0.00852211,-0.01384844,-0.00852211,-0.09457096,-0.23822308,9.29907894,0.00523564,-0.01403206,-0.00188015
3868.215176,0.99997145,0.00262482,-0.00701925,-0.00092612,0.00532632,-0.00852211,-0.00319579,-0.09457096,-0.23822308,9.29907894,0.00526303,-0.01403370,-0.00188922
3868.217341,0.99997139,0.00264017,-0.00701868,-0.00093274,0.01278317,-0.00213053,-0.01704423,-0.04070143,-0.28850129,9.34456921,0.00529382,-0.01403249,-0.00190267
3868.219394,0.99997139,0.00264711,-0.00701798,-0.00093924,0.01278317,-0.00745685,-0.01491370,-0.04070143,-0.28850129,9.34456921,0.00530780,-0.01403104,-0.00191577
3868.221433,0.99997133,0.00266659,-0.00701858,-0.00095230,0.01384844,-0.01065264,-0.01171791,-0.11372458,-0.18794483,9.33259869,0.00534696,-0.01403214,-0.00194217
3868.223461,0.99997127,0.00267197,-0.00702493,-0.00095388,0.00532632,-0.01171791,-0.00213053,-0.11372458,-0.18794483,9.33259869,0.00535774,-0.01404481,-0.00194543
3868.225412,0.99997121,0.00267955,-0.00703010,-0.00095763,0.01065264,-0.01597896,-0.00532632,-0.11372458,-0.18794483,9.33259869,0.00537297,-0.01405513,-0.00195308
3868.227270,0.99997127,0.00268412,-0.00702601,-0.00095614,-0.00958738,-0.00639159,-0.00745685,-0.12090719,-0.01436521,9.33259869,0.00538208,-0.01404694,-0.00195014
3868.229419,0.99997133,0.00268506,-0.00702078,-0.00095781,-0.00639159,-0.00213053,-0.00639159,-0.12090719,-0.01436521,9.33259869,0.00538397,-0.01403648,-0.00195346
3868.231448,0.99997133,0.00267536,-0.00701866,-0.00095819,-0.01384844,-0.00745685,0.00213053,-0.10295067,-0.02873042,9.39125633,0.00536458,-0.01403224,-0.00195408
3868.233336,0.99997139,0.00266609,-0.00700852,-0.00095764,-0.00745685,0.00319579,0.00532632,-0.10295067,-0.02873042,9.39125633,0.00534600,-0.01401200,-0.00195278
3868.235408,0.99997151,0.00265397,-0.00700474,-0.00095427,-0.01278317,-0.01491370,-0.00106526,-0.10295067,-0.02873042,9.39125633,0.00532171,-0.01400448,-0.00194587
3868.237438,0.99997157,0.00262849,-0.00700384,-0.00095120,-0.02130529,-0.01171791,-0.00426106,-0.02873042,-0.12689269,9.31344414,0.00527069,-0.01400275,-0.00193936
3868.239507,0.99997163,0.00261778,-0.00700056,-0.00094893,-0.00958738,-0.00532632,0.00213053,-0.02873042,-0.12689269,9.31344414,0.00524923,-0.01399621,-0.00193465
3868.241423,0.99997163,0.00261048,-0.00700515,-0.00094980,-0.01810949,-0.01810949,-0.00426106,-0.02873042,-0.12689269,9.31344414,0.00523466,-0.01400541,-0.00193631
3868.243213,0.99997157,0.00260177,-0.00701285,-0.00094473,-0.00213053,-0.01278317,0.00532632,-0.00239420,-0.23822308,9.34217548,0.00521718,-0.01402084,-0.00192609
3868.245391,0.99997151,0.00261176,-0.00701348,-0.00094166,0.01491370,-0.01065264,-0.00426106,-0.00239420,-0.23822308,9.34217548,0.00523711,-0.01402210,-0.00192010
3868.247489,0.99997157,0.00261404,-0.00701613,-0.00093313,0.00213053,-0.01384844,0.01491370,-0.02274492,-0.25378537,9.36132908,0.00524156,-0.01402744,-0.00190308
3868.249506,0.99997151,0.00263029,-0.00701536,-0.00092166,0.01171791,-0.00745685,0.00639159,-0.02274492,-0.25378537,9.36132908,0.00527390,-0.01402593,-0.00188036
3868.251516,0.99997139,0.00264845,-0.00702741,-0.00091536,0.02450108,-0.02450108,0.00319579,0.00957681,-0.18315643,9.30506516,0.00531015,-0.01405004,-0.00186808
3868.253555,0.99997133,0.00266299,-0.00702998,-0.00090489,0.01065264,-0.01491370,0.01491370,0.00957681,-0.18315643,9.30506516,0.00533911,-0.01405520,-0.00184735
3868.255387,0.99997133,0.00267012,-0.00703003,-0.00089487,0.00958738,-0.00958738,0.00319579,0.00957681,-0.18315643,9.30506516,0.00535322,-0.01405533,-0.00182742
3868.257427,0.99997127,0.00267351,-0.00702922,-0.00089014,0.00745685,-0.00639159,0.00639159,0.01795651,0.00359130,9.31105042,0.00535994,-0.01405374,-0.00181800
3868.259400,0.99997133,0.00267758,-0.00703128,-0.00088910,0.00532632,-0.01171791,0.00000000,0.01795651,0.00359130,9.31105042,0.00536807,-0.01405786,-0.00181599
3868.261223,0.99997145,0.00265843,-0.00702132,-0.00086764,-0.01810949,-0.00319579,0.01491370,-0.01197101,-0.00598550,9.39963627,0.00532945,-0.01403809,-0.00177274
3868.263371,0.99997145,0.00264115,-0.00702327,-0.00085935,-0.02343581,-0.01278317,0.00319579,-0.01197101,-0.00598550,9.39963627,0.00529476,-0.01404205,-0.00175592
3868.265504,0.99997157,0.00261784,-0.00702302,-0.00084939,-0.02876214,-0.00639159,0.01171791,-0.01197101,-0.00598550,9.39963627,0.00524800,-0.01404166,-0.00173568
3868.267435,0.99997163,0.00260592,-0.00701424,-0.00084134,-0.01171791,-0.00213053,-0.00106526,-0.02274492,-0.19273324,9.32062721,0.00522404,-0.01402415,-0.00171935
3868.269589,0.99997163,0.00260293,-0.00701841,-0.00084122,-0.00958738,-0.01597896,-0.00213053,-0.02274492,-0.19273324,9.32062721,0.00521805,-0.01403249,-0.00171910
3868.271481,0.99997163,0.00259294,-0.00702059,-0.00083303,-0.01384844,0.00213053,0.00213053,-0.03232172,-0.24061728,9.29907894,0.00519797,-0.01403692,-0.00170260
3868.273448,0.99997169,0.00259721,-0.00701279,-0.00083161,0.00213053,0.00213053,-0.00426106,-0.03232172,-0.24061728,9.29907894,0.00520646,-0.01402131,-0.00169977
3868.275436,0.99997169,0.00259625,-0.00701632,-0.00083101,-0.00426106,-0.01491370,-0.00106526,-0.03232172,-0.24061728,9.29907894,0.00520455,-0.01402839,-0.00169857
3868.277436,0.99997157,0.00261226,-0.00701949,-0.00083813,0.01065264,-0.00319579,-0.01065264,-0.04429273,-0.31364042,9.39365005,0.00523668,-0.01403467,-0.00171305
3868.279449,0.99997145,0.00262043,-0.00702850,-0.00083599,-0.00106526,-0.01704423,0.00106526,-0.04429273,-0.31364042,9.39365005,0.00525300,-0.01405268,-0.00170893
3868.281446,0.99997139,0.00263199,-0.00703803,-0.00083816,0.01704423,-0.01810949,-0.00745685,-0.05027824,-0.17956513,9.30626202,0.00527618,-0.01407172,-0.00171348
3868.283453,0.99997145,0.00264209,-0.00703051,-0.00084482,0.01491370,-0.00852211,-0.00532632,-0.05027824,-0.17956513,9.30626202,0.00529645,-0.01405661,-0.00172691
3868.285476,0.99997139,0.00265066,-0.00703470,-0.00085554,0.00000000,-0.01384844,-0.00639159,-0.05027824,-0.17956513,9.30626202,0.00531375,-0.01406492,-0.00174849
3868.287460,0.99997133,0.00264647,-0.00703763,-0.00086022,-0.00639159,-0.01278317,-0.00532632,-0.06464344,-0.06584055,9.30267048,0.00530545,-0.01407077,-0.00175782
3868.289340,0.99997139,0.00263575,-0.00703418,-0.00087235,-0.00639159,-0.00639159,-0.00958738,-0.06464344,-0.06584055,9.30267048,0.00528418,-0.01406383,-0.00178191
3868.291326,0.99997145,0.00262271,-0.00702915,-0.00089139,-0.01917476,-0.00319579,-0.02663161,-0.08379706,-0.02873042,9.36611748,0.00525835,-0.01405369,-0.00181979
3868.293458,0.99997151,0.00260403,-0.00703223,-0.00089211,-0.03089266,-0.01171791,0.00958738,-0.08379706,-0.02873042,9.36611748,0.00522099,-0.01405988,-0.00182097
3868.295487,0.99997145,0.00260038,-0.00703431,-0.00089574,-0.01065264,-0.01278317,-0.00958738,-0.08379706,-0.02873042,9.36611748,0.00521375,-0.01406403,-0.00182820
3868.297489,0.99997157,0.00258713,-0.00702333,-0.00091591,-0.00213053,0.00426106,-0.01810949,-0.14484920,-0.19991584,9.38527107,0.00518752,-0.01404199,-0.00186829
3868.299503,0.99997157,0.00258464,-0.00702111,-0.00092653,0.00000000,-0.00639159,-0.01065264,-0.14484920,-0.19991584,9.38527107,0.00518268,-0.01403750,-0.00188949
3868.301493,0.99997163,0.00258328,-0.00702072,-0.00093236,-0.00532632,-0.00852211,-0.01384844,-0.14484920,-0.19991584,9.38527107,0.00518004,-0.01403669,-0.00190114
3868.303493,0.99997169,0.00257184,-0.00700275,-0.00094893,-0.00426106,-0.00745685,-0.01917476,-0.14245500,-0.21906945,9.30147362,0.00515735,-0.01400068,-0.00193402
3868.305472,0.99997163,0.00258343,-0.00700318,-0.00095866,0.00426106,-0.01384844,-0.01171791,-0.14245500,-0.21906945,9.30147362,0.00518067,-0.01400148,-0.00195365
3868.307322,0.99997163,0.00258473,-0.00700526,-0.00096609,0.00213053,-0.01278317,-0.01171791,-0.07661445,-0.21787235,9.31105042,0.00518338,-0.01400559,-0.00196853
3868.309449,0.99997163,0.00258843,-0.00700386,-0.00098106,-0.00213053,-0.00852211,-0.01491370,-0.07661445,-0.21787235,9.31105042,0.00519098,-0.01400269,-0.00199852
3868.311473,0.99997157,0.00260126,-0.00700984,-0.00098221,0.01917476,-0.01597896,-0.00213053,-0.05985504,-0.21428105,9.36372280,0.00521667,-0.01401463,-0.00200103
3868.313437,0.99997139,0.00261177,-0.00701979,-0.00098966,0.00532632,-0.01597896,-0.01384844,-0.05985504,-0.21428105,9.36372280,0.00523782,-0.01403447,-0.00201614
3868.315488,0.99997133,0.00261796,-0.00702399,-0.00099607,0.00319579,-0.01278317,-0.00213053,-0.05985504,-0.21428105,9.36372280,0.00525031,-0.01404283,-0.00202907
3868.317455,0.99997133,0.00261719,-0.00702097,-0.00099610,-0.00319579,-0.00319579,-0.00213053,-0.10534488,-0.12210429,9.33020401,0.00524876,-0.01403678,-0.00202909
3868.319440,0.99997127,0.00262378,-0.00702666,-0.00100089,0.00000000,-0.01278317,-0.01065264,-0.10534488,-0.12210429,9.33020401,0.00526202,-0.01404812,-0.00203880
3868.321385,0.99997127,0.00262919,-0.00702972,-0.00100729,0.00319579,-0.01065264,0.00000000,-0.11133038,0.00119710,9.35175228,0.00527295,-0.01405420,-0.00205168
3868.323258,0.99997133,0.00263023,-0.00702861,-0.00099717,-0.00639159,-0.00958738,0.00639159,-0.11133038,0.00119710,9.35175228,0.00527486,-0.01405203,-0.00203145
3868.325182,0.99997121,0.00263088,-0.00702916,-0.00099662,-0.00213053,-0.01065264,-0.00106526,-0.11133038,0.00119710,9.35175228,0.00527616,-0.01405314,-0.00203037
3868.327638,0.99997145,0.00261400,-0.00701774,-0.00100287,-0.01597896,-0.00213053,-0.00745685,-0.04908114,-0.07062895,9.32900715,0.00524247,-0.01403030,-0.00204258
3868.329492,0.99997139,0.00260463,-0.00702280,-0.00099623,-0.02130529,-0.01384844,0.00000000,-0.04908114,-0.07062895,9.32900715,0.00522364,-0.01404047,-0.00202919
3868.331577,0.99997139,0.00260178,-0.00702465,-0.00099721,-0.00958738,-0.01278317,-0.00426106,-0.04908114,-0.07062895,9.32900715,0.00521795,-0.01404418,-0.00203111
3868.333580,0.99997133,0.00260030,-0.00703523,-0.00099379,-0.00745685,-0.01491370,0.00639159,-0.02633622,-0.16519992,9.30027676,0.00521497,-0.01406535,-0.00202431
3868.335511,0.99997127,0.00259708,-0.00704427,-0.00099945,-0.00958738,-0.02663161,-0.01384844,-0.02633622,-0.16519992,9.30027676,0.00520864,-0.01408340,-0.00203564
3868.337550,0.99997127,0.00259702,-0.00704195,-0.00099308,-0.00106526,-0.01171791,0.00213053,-0.02274492,-0.30286652,9.37329960,0.00520842,-0.01407881,-0.00202287
3868.339473,0.99997139,0.00261056,-0.00703235,-0.00098382,0.00639159,-0.00745685,0.00000000,-0.02274492,-0.30286652,9.37329960,0.00523535,-0.01405962,-0.00200450
3868.341462,0.99997139,0.00261314,-0.00703019,-0.00097003,0.00000000,-0.01171791,0.00852211,-0.03351882,-0.19632454,9.32541561,0.00524032,-0.01405536,-0.00197695
3868.343503,0.99997139,0.00262935,-0.00702665,-0.00096766,0.01171791,-0.00532632,-0.00213053,-0.03351882,-0.19632454,9.32541561,0.00527269,-0.01404827,-0.00197241
3868.345476,0.99997139,0.00264679,-0.00702783,-0.00095618,0.01384844,-0.00852211,0.01597896,-0.00718261,-0.11851298,9.30027676,0.00530742,-0.01405067,-0.00194970
3868.347474,0.99997127,0.00265708,-0.00703442,-0.00094132,0.00213053,-0.02024002,0.00852211,-0.00718261,-0.11851298,9.30027676,0.00532780,-0.01406389,-0.00192015
3868.349451,0.99997121,0.00266033,-0.00704052,-0.00094127,0.00426106,-0.02024002,-0.00213053,-0.00718261,-0.11851298,9.30027676,0.00533431,-0.01407610,-0.00192014
3868.351360,0.99997127,0.00265021,-0.00704695,-0.00092716,-0.01597896,-0.02556634,-0.00106526,-0.03112462,0.01436521,9.34935760,0.00531389,-0.01408905,-0.00189180
3868.353442,0.99997115,0.00264040,-0.00705648,-0.00092579,-0.01597896,-0.02130529,0.00106526,-0.03112462,0.01436521,9.34935760,0.00529427,-0.01410812,-0.00188897
3868.355368,0.99997121,0.00263069,-0.00706091,-0.00092130,-0.02343581,-0.01704423,0.00639159,-0.03112462,0.01436521,9.34935760,0.00527479,-0.01411703,-0.00187989
3868.357433,0.99997127,0.00260913,-0.00706510,-0.00091183,-0.01278317,-0.02130529,-0.00532632,-0.04788403,-0.14844051,9.34816074,0.00523154,-0.01412550,-0.00186066
3868.359511,0.99997127,0.00259931,-0.00705896,-0.00090696,-0.01278317,0.00213053,0.00745685,-0.04788403,-0.14844051,9.34816074,0.00521181,-0.01411326,-0.00185075
3868.361454,0.99997139,0.00258275,-0.00705014,-0.00089724,-0.01810949,0.00000000,0.00852211,-0.01316811,-0.23343466,9.27034855,0.00517853,-0.01409570,-0.00183103
3868.363488,0.99997139,0.00257889,-0.00705172,-0.00090035,-0.00319579,-0.00852211,-0.00532632,-0.01316811,-0.23343466,9.27034855,0.00517086,-0.01409886,-0.00183720
3868.365486,0.99997139,0.00257789,-0.00704634,-0.00089721,-0.00213053,0.00106526,0.00532632,-0.02513912,-0.31723171,9.33020401,0.00516881,-0.01408811,-0.00183088
3868.367479,0.99997151,0.00258913,-0.00703719,-0.00089059,0.01171791,0.00213053,-0.00319579,-0.02513912,-0.31723171,9.33020401,0.00519119,-0.01406984,-0.00181775
3868.369564,0.99997151,0.00259673,-0.00703472,-0.00088489,0.01384844,-0.00319579,0.00958738,-0.02513912,-0.31723171,9.33020401,0.00520630,-0.01406491,-0.00180643
3868.371435,0.99997139,0.00261566,-0.00704085,-0.00088828,0.00958738,-0.00319579,0.00000000,-0.05267244,-0.22984336,9.33379555,0.00524422,-0.01407711,-0.00181353
3868.373381,0.99997145,0.00261770,-0.00703627,-0.00088945,0.00319579,0.00106526,-0.00426106,-0.05267244,-0.22984336,9.33379555,0.00524832,-0.01406794,-0.00181587
3868.375473,0.99997145,0.00261637,-0.00703744,-0.00090114,-0.01384844,-0.00745685,-0.01065264,-0.05865794,-0.08858547,9.33858395,0.00524582,-0.01407023,-0.00183923
3868.377472,0.99997151,0.00261093,-0.00703031,-0.00090915,-0.00532632,0.00319579,-0.01278317,-0.05865794,-0.08858547,9.33858395,0.00523503,-0.01405593,-0.00185514
3868.379464,0.99997145,0.00260860,-0.00702942,-0.00091605,-0.00639159,-0.00639159,-0.01597896,-0.05865794,-0.08858547,9.33858395,0.00523046,-0.01405413,-0.00186890
3868.381498,0.99997151,0.00259483,-0.00703290,-0.00093015,-0.00639159,-0.01065264,-0.01597896,-0.08140286,-0.07541735,9.37569427,0.00520314,-0.01406104,-0.00189694
3868.383514,0.99997151,0.00259134,-0.00702652,-0.00093338,-0.00958738,0.00426106,-0.00852211,-0.08140286,-0.07541735,9.37569427,0.00519619,-0.01404826,-0.00190332
3868.385459,0.99997157,0.00258677,-0.00702000,-0.00093552,-0.00745685,-0.00852211,0.00000000,-0.08140286,-0.07541735,9.37569427,0.00518706,-0.01403522,-0.00190750
3868.387473,0.99997163,0.00257364,-0.00701664,-0.00095932,-0.01491370,-0.00532632,-0.02024002,-0.10175357,-0.16519992,9.37090588,0.00516113,-0.01402840,-0.00195489
3868.389332,0.99997169,0.00256543,-0.00700735,-0.00095985,-0.01917476,0.00958738,-0.00319579,-0.10175357,-0.16519992,9.37090588,0.00514469,-0.01400983,-0.00195580
3868.391516,0.99997169,0.00256164,-0.00701053,-0.00096133,-0.00852211,-0.00958738,-0.00639159,-0.11252748,-0.21068975,9.29788208,0.00513713,-0.01401619,-0.00195871
3868.393536,0.99997175,0.00255549,-0.00700307,-0.00096451,0.00106526,-0.01278317,0.00000000,-0.11252748,-0.21068975,9.29788208,0.00512486,-0.01400128,-0.00196495
3868.395553,0.99997169,0.00255954,-0.00701194,-0.00097241,-0.00426106,-0.02130529,-0.01278317,-0.09097967,-0.23942018,9.29189682,0.00513309,-0.01401896,-0.00198085
3868.397300,0.99997163,0.00256405,-0.00701697,-0.00098092,0.00745685,-0.01917476,-0.01917476,-0.09097967,-0.23942018,9.29189682,0.00514226,-0.01402898,-0.00199796
3868.399415,0.99997157,0.00256629,-0.00701004,-0.00099381,0.01171791,-0.01065264,-0.00958738,-0.09097967,-0.23942018,9.29189682,0.00514690,-0.01401504,-0.00202375
3868.401461,0.99997151,0.00257256,-0.00701415,-0.00100235,0.00639159,-0.01065264,-0.00958738,-0.08259996,-0.17118542,9.34935760,0.00515957,-0.01402320,-0.00204094
3868.403418,0.99997151,0.00257177,-0.00701433,-0.00100499,-0.00319579,-0.00958738,-0.00745685,-0.08259996,-0.17118542,9.34935760,0.00515802,-0.01402354,-0.00204621
3868.405440,0.99997145,0.00258343,-0.00702177,-0.00100823,0.00958738,-0.01597896,0.00000000,-0.06823475,-0.16519992,9.30626202,0.00518140,-0.01403840,-0.00205289
3868.407428,0.99997139,0.00258622,-0.00702551,-0.00101779,-0.00532632,-0.01065264,-0.01065264,-0.06823475,-0.16519992,9.30626202,0.00518713,-0.01404581,-0.00207207
3868.409413,0.99997151,0.00258877,-0.00701776,-0.00101900,0.00319579,0.00639159,-0.00426106,-0.06823475,-0.16519992,9.30626202,0.00519224,-0.01403030,-0.00207448
3868.411407,0.99997151,0.00259949,-0.00701204,-0.00102082,-0.00319579,-0.00639159,0.00213053,-0.10295067,-0.07062895,9.37090588,0.00521368,-0.01401882,-0.00207824
3868.413422,0.99997145,0.00260548,-0.00701065,-0.00101291,0.00426106,-0.00639159,0.01278317,-0.10295067,-0.07062895,9.37090588,0.00522555,-0.01401607,-0.00206251
3868.415447,0.99997145,0.00260432,-0.00700754,-0.00100973,-0.00532632,-0.00319579,0.00426106,-0.10295067,-0.07062895,9.37090588,0.00522319,-0.01400988,-0.00205611
3868.417362,0.99997151,0.00260493,-0.00700705,-0.00100332,-0.00426106,0.00106526,0.00639159,-0.04668693,-0.06703765,9.35055447,0.00522431,-0.01400893,-0.00204328
3868.419590,0.99997151,0.00259764,-0.00701153,-0.00099886,-0.01810949,-0.01810949,0.00639159,-0.04668693,-0.06703765,9.35055447,0.00520968,-0.01401793,-0.00203430
3868.421436,0.99997151,0.00259047,-0.00701229,-0.00100031,-0.00852211,-0.01065264,-0.00319579,0.01675941,-0.10414778,9.30985355,0.00519536,-0.01401946,-0.00203710
3868.423435,0.99997157,0.00257667,-0.00701179,-0.00099422,-0.01171791,-0.00852211,-0.00213053,0.01675941,-0.10414778,9.30985355,0.00516768,-0.01401852,-0.00202472
3868.425348,0.99997163,0.00257599,-0.00701730,-0.00098026,0.00532632,-0.01384844,0.01065264,0.00000000,-0.25498247,9.37210274,0.00516613,-0.01402962,-0.00199682
3868.427363,0.99997163,0.00257169,-0.00701001,-0.00097444,-0.01171791,0.00639159,0.00958738,0.00000000,-0.25498247,9.37210274,0.00515743,-0.01401506,-0.00198507
3868.429365,0.99997175,0.00257341,-0.00699960,-0.00096396,0.00532632,-0.00639159,0.00745685,0.00000000,-0.25498247,9.37210274,0.00516069,-0.01399429,-0.00196408
3868.431415,0.99997175,0.00258318,-0.00699900,-0.00095079,0.00319579,-0.00958738,0.00745685,-0.02513912,-0.20231004,9.32661247,0.00518006,-0.01399315,-0.00193788
3868.433452,0.99997181,0.00258104,-0.00699207,-0.00094287,-0.00213053,0.00426106,0.00852211,-0.02513912,-0.20231004,9.32661247,0.00517565,-0.01397934,-0.00192197
3868.435341,0.99997175,0.00259607,-0.00699031,-0.00092288,0.01065264,-0.00745685,0.02450108,-0.00598550,-0.15203181,9.34097767,0.00520543,-0.01397589,-0.00188219
3868.437239,0.99997175,0.00260042,-0.00699301,-0.00091225,0.00000000,-0.00852211,0.00532632,-0.00598550,-0.15203181,9.34097767,0.00521398,-0.01398134,-0.00186100
3868.439380,0.99997175,0.00260097,-0.00699124,-0.00091068,-0.00106526,-0.00426106,0.00106526,-0.00598550,-0.15203181,9.34097767,0.00521506,-0.01397780,-0.00185787
3868.441447,0.99997181,0.00259530,-0.00699335,-0.00090044,-0.01065264,-0.01704423,0.00213053,-0.00957681,-0.00239420,9.34935760,0.00520358,-0.01398209,-0.00183731
3868.443312,0.99997181,0.00258729,-0.00699535,-0.00089975,-0.01917476,-0.01171791,-0.00106526,-0.00957681,-0.00239420,9.34935760,0.00518755,-0.01398610,-0.00183583
3868.445312,0.99997181,0.00257910,-0.00699350,-0.00089911,-0.01704423,0.00213053,-0.00319579,-0.00957681,-0.00239420,9.34935760,0.00517116,-0.01398243,-0.00183442
3868.447343,0.99997187,0.00256443,-0.00699491,-0.00088393,-0.01704423,-0.00426106,0.00745685,-0.03830723,-0.11971009,9.37090588,0.00514162,-0.01398536,-0.00180386
3868.449324,0.99997181,0.00255995,-0.00700192,-0.00088268,-0.00852211,-0.00958738,0.00106526,-0.03830723,-0.11971009,9.37090588,0.00513265,-0.01399939,-0.00180133
3868.451422,0.99997181,0.00255368,-0.00700114,-0.00087779,-0.01597896,-0.00639159,0.00745685,0.01795651,-0.20350714,9.27753162,0.00512002,-0.01399785,-0.00179147
3868.453425,0.99997187,0.00254907,-0.00699705,-0.00087511,0.00852211,-0.00319579,0.00213053,0.01795651,-0.20350714,9.27753162,0.00511077,-0.01398971,-0.00178602
3868.455586,0.99997187,0.00255748,-0.00699369,-0.00086996,0.00319579,0.00213053,0.00000000,-0.02035072,-0.31483752,9.31105042,0.00512751,-0.01398299,-0.00177582
3868.457407,0.99997187,0.00256488,-0.00699041,-0.00086852,0.01278317,-0.00106526,0.00106526,-0.02035072,-0.31483752,9.31105042,0.00514228,-0.01397643,-0.00177303
3868.459491,0.99997181,0.00258564,-0.00699974,-0.00086817,0.01597896,-0.02024002,-0.00532632,-0.02035072,-0.31483752,9.31105042,0.00518381,-0.01399504,-0.00177267
3868.461456,0.99997175,0.00259725,-0.00700600,-0.00087626,0.00426106,-0.01704423,-0.00745685,-0.02873042,-0.23822308,9.29548836,0.00520717,-0.01400751,-0.00178903
3868.463443,0.99997163,0.00260191,-0.00701640,-0.00088044,0.00958738,-0.02663161,-0.00319579,-0.02873042,-0.23822308,9.29548836,0.00521657,-0.01402829,-0.00179752
3868.465507,0.99997157,0.00259975,-0.00701820,-0.00088412,-0.00213053,-0.00639159,-0.00319579,-0.05147533,-0.10534488,9.33379555,0.00521229,-0.01403186,-0.00180485
3868.467644,0.99997157,0.00260545,-0.00701619,-0.00089116,0.00426106,-0.00958738,-0.01065264,-0.05147533,-0.10534488,9.33379555,0.00522380,-0.01402780,-0.00181901
3868.469538,0.99997157,0.00260841,-0.00701812,-0.00089757,0.00426106,-0.01171791,-0.01491370,-0.05147533,-0.10534488,9.33379555,0.00522980,-0.01403162,-0.00183188
3868.471474,0.99997163,0.00258712,-0.00701431,-0.00089782,-0.01171791,-0.01065264,-0.00319579,-0.09097967,-0.11133038,9.38766479,0.00518723,-0.01402403,-0.00183207
3868.473460,0.99997163,0.00257829,-0.00701391,-0.00090461,-0.01491370,-0.00213053,-0.01065264,-0.09097967,-0.11133038,9.38766479,0.00516965,-0.01402322,-0.00184551
3868.475502,0.99997175,0.00257318,-0.00701122,-0.00090616,-0.01278317,-0.00319579,-0.00532632,-0.09097967,-0.11133038,9.38766479,0.00515944,-0.01401785,-0.00184854
3868.477464,0.99997181,0.00255244,-0.00700425,-0.00092404,-0.01384844,-0.00958738,-0.01810949,-0.08499416,-0.12808979,9.35294914,0.00511821,-0.01400386,-0.00188397
3868.479500,0.99997187,0.00254335,-0.00699345,-0.00093523,-0.01597896,0.01384844,-0.01704423,-0.08499416,-0.12808979,9.35294914,0.00510015,-0.01398220,-0.00190617
3868.481476,0.99997193,0.00253773,-0.00698848,-0.00093574,-0.01384844,0.00106526,-0.00319579,-0.07661445,-0.22505496,9.34097767,0.00508892,-0.01397228,-0.00190709
3868.483519,0.99997187,0.00254681,-0.00699297,-0.00095230,0.00213053,-0.02130529,-0.01171791,-0.07661445,-0.22505496,9.34097767,0.00510733,-0.01398115,-0.00194036
3868.485479,0.99997187,0.00254389,-0.00699582,-0.00095966,-0.00319579,-0.00958738,-0.00745685,-0.11252748,-0.24779987,9.33379555,0.00510159,-0.01398683,-0.00195505
3868.487333,0.99997175,0.00254939,-0.00699678,-0.00097144,0.00958738,-0.01065264,-0.02556634,-0.11252748,-0.24779987,9.33379555,0.00511275,-0.01398867,-0.00197870
3868.489469,0.99997175,0.00256040,-0.00700213,-0.00098164,0.01171791,-0.00958738,-0.01171791,-0.11252748,-0.24779987,9.33379555,0.00513493,-0.01399929,-0.00199927
3868.491284,0.99997175,0.00256771,-0.00698625,-0.00099901,0.00639159,0.00639159,-0.01384844,-0.11133038,-0.16879122,9.32661247,0.00514977,-0.01396743,-0.00203404
3868.493457,0.99997175,0.00257117,-0.00698423,-0.00100068,0.00532632,-0.00532632,-0.00532632,-0.11133038,-0.16879122,9.32661247,0.00515669,-0.01396338,-0.00203742
3868.495443,0.99997175,0.00257047,-0.00697775,-0.00101299,-0.00639159,0.00213053,-0.00426106,-0.07900865,-0.14125790,9.33259869,0.00515545,-0.01395034,-0.00206200
3868.497482,0.99997175,0.00256812,-0.00698075,-0.00101928,-0.00106526,-0.01704423,-0.00639159,-0.07900865,-0.14125790,9.33259869,0.00515086,-0.01395633,-0.00207457
3868.499454,0.99997175,0.00257186,-0.00698408,-0.00101821,0.00532632,-0.01597896,0.00000000,-0.07900865,-0.14125790,9.33259869,0.00515833,-0.01396298,-0.00207250
3868.501465,0.99997181,0.00257760,-0.00697435,-0.00101575,0.00852211,-0.00745685,0.00000000,-0.09097967,-0.11013328,9.34337234,0.00516975,-0.01394351,-0.00206760
3868.503561,0.99997181,0.00257650,-0.00697196,-0.00101574,-0.00852211,-0.00958738,0.00000000,-0.09097967,-0.11013328,9.34337234,0.00516754,-0.01393874,-0.00206756
3868.505481,0.99997193,0.00257420,-0.00696142,-0.00101319,-0.00745685,0.01171791,0.00319579,-0.07541735,-0.09935937,9.31105042,0.00516288,-0.01391768,-0.00206237
3868.507476,0.99997193,0.00256172,-0.00696764,-0.00100168,-0.01065264,-0.00745685,0.00426106,-0.07541735,-0.09935937,9.31105042,0.00513778,-0.01393020,-0.00203920
3868.509328,0.99997187,0.00255262,-0.00697068,-0.00099774,-0.00532632,-0.00852211,-0.00213053,-0.03711013,-0.11971009,9.29069996,0.00511952,-0.01393633,-0.00203121
3868.511478,0.99997199,0.00254832,-0.00696938,-0.00099768,-0.01171791,-0.00639159,-0.00213053,-0.03711013,-0.11971009,9.29069996,0.00511092,-0.01393373,-0.00203103
3868.513516,0.99997199,0.00253446,-0.00697199,-0.00099207,-0.01704423,-0.00745685,-0.00106526,-0.03711013,-0.11971009,9.29069996,0.00508313,-0.01393902,-0.00201963
3868.515481,0.99997193,0.00253061,-0.00697133,-0.00098881,-0.00852211,-0.00852211,0.00639159,-0.00837971,-0.16759412,9.36013126,0.00507537,-0.01393772,-0.00201304
3868.517483,0.99997193,0.00253156,-0.00697027,-0.00098670,-0.00106526,-0.00639159,0.00213053,-0.00837971,-0.16759412,9.36013126,0.00507725,-0.01393561,-0.00200883
3868.519694,0.99997199,0.00253664,-0.00697087,-0.00097716,-0.00532632,-0.00745685,0.00958738,-0.00837971,-0.16759412,9.36013126,0.00508728,-0.01393684,-0.00198983
3868.521487,0.99997216,0.00252832,-0.00696304,-0.00096116,-0.01384844,0.01171791,0.00852211,-0.03351882,-0.22146365,9.31224728,0.00507040,-0.01392129,-0.00195766
3868.523467,0.99997211,0.00253317,-0.00695891,-0.00095969,0.00745685,0.00000000,0.00106526,-0.03351882,-0.22146365,9.31224728,0.00508007,-0.01391303,-0.00195477
3868.525424,0.99997199,0.00255835,-0.00697159,-0.00094709,0.01171791,-0.01491370,0.00213053,0.00119710,-0.15682021,9.33259869,0.00513029,-0.01393840,-0.00192999
3868.527283,0.99997199,0.00256655,-0.00697255,-0.00093707,0.01065264,-0.00745685,0.00426106,0.00119710,-0.15682021,9.33259869,0.00514654,-0.01394036,-0.00191007
3868.529437,0.99997199,0.00256991,-0.00697330,-0.00092912,0.00426106,-0.00958738,0.01384844,0.00119710,-0.15682021,9.33259869,0.00515315,-0.01394188,-0.00189421
3868.531399,0.99997199,0.00257787,-0.00696720,-0.00091654,-0.00106526,0.00106526,0.00213053,-0.01915361,-0.04788403,9.32661247,0.00516890,-0.01392973,-0.00186912
3868.533424,0.99997211,0.00256941,-0.00695717,-0.00091228,-0.00958738,0.00106526,0.00106526,-0.01915361,-0.04788403,9.32661247,0.00515189,-0.01390970,-0.00186045
3868.535476,0.99997211,0.00256377,-0.00695365,-0.00090479,-0.01491370,-0.00106526,0.01278317,-0.03830723,-0.05147533,9.33499241,0.00514050,-0.01390272,-0.00184535
3868.537544,0.99997216,0.00254810,-0.00696289,-0.00089426,-0.01384844,-0.01917476,0.00106526,-0.03830723,-0.05147533,9.33499241,0.00510902,-0.01392129,-0.00182414
3868.539515,0.99997216,0.00253594,-0.00695960,-0.00088878,-0.01704423,0.00106526,0.00213053,-0.04189853,-0.20470424,9.33978081,0.00508463,-0.01391475,-0.00181299
3868.541571,0.99997216,0.00252638,-0.00696364,-0.00089390,-0.02237055,-0.01597896,-0.01278317,-0.04189853,-0.20470424,9.33978081,0.00506558,-0.01392283,-0.00182311
3868.543530,0.99997222,0.00252039,-0.00696206,-0.00088742,-0.00213053,-0.00745685,0.00426106,-0.04189853,-0.20470424,9.33978081,0.00505350,-0.01391972,-0.00181006
3868.545590,0.99997234,0.00251597,-0.00694968,-0.00088486,-0.00745685,0.00000000,0.00213053,-0.02513912,-0.26934770,9.29668522,0.00504462,-0.01389498,-0.00180482
3868.547456,0.99997228,0.00251701,-0.00695100,-0.00088592,0.00000000,-0.01065264,-0.00426106,-0.02513912,-0.26934770,9.29668522,0.00504671,-0.01389760,-0.00180696
3868.549485,0.99997216,0.00253410,-0.00695805,-0.00089620,0.01597896,-0.01597896,-0.00958738,-0.02513912,-0.26934770,9.29668522,0.00508105,-0.01391161,-0.00182779
3868.551398,0.99997211,0.00254528,-0.00696131,-0.00089632,-0.00426106,-0.00958738,0.00426106,-0.05506664,-0.26336220,9.33140087,0.00510342,-0.01391811,-0.00182820
3868.553493,0.99997211,0.00254640,-0.00696466,-0.00089629,0.00106526,-0.01491370,-0.00213053,-0.05506664,-0.26336220,9.33140087,0.00510566,-0.01392481,-0.00182817
3868.555382,0.99997199,0.00256041,-0.00697431,-0.00091074,-0.00426106,-0.02024002,-0.01278317,-0.04908114,-0.09935937,9.27274323,0.00513389,-0.01394403,-0.00185732
3868.557473,0.99997205,0.00255739,-0.00696396,-0.00091670,-0.00213053,0.00000000,-0.01171791,-0.04908114,-0.09935937,9.27274323,0.00512793,-0.01392329,-0.00186915
3868.559456,0.99997205,0.00255731,-0.00695935,-0.00092262,-0.00213053,0.00106526,-0.01384844,-0.04908114,-0.09935937,9.27274323,0.00512783,-0.01391404,-0.00188098
3868.561479,0.99997211,0.00255235,-0.00695416,-0.00093805,-0.01491370,0.00426106,-0.01171791,-0.10773908,-0.07062895,9.33259869,0.00511813,-0.01390359,-0.00191174
3868.563483,0.99997211,0.00254867,-0.00695994,-0.00095387,-0.00958738,-0.00852211,-0.01597896,-0.10773908,-0.07062895,9.33259869,0.00511098,-0.01391507,-0.00194336
3868.565494,0.99997205,0.00254477,-0.00696405,-0.00095960,-0.01065264,-0.01704423,-0.01384844,-0.11971009,-0.11851298,9.39125633,0.00510328,-0.01392327,-0.00195478
3868.567503,0.99997205,0.00253003,-0.00696859,-0.00097312,-0.01171791,0.00000000,-0.00106526,-0.11971009,-0.11851298,9.39125633,0.00507399,-0.01393232,-0.00198164
3868.569714,0.99997205,0.00252460,-0.00697145,-0.00097778,-0.01384844,-0.01491370,-0.01171791,-0.11971009,-0.11851298,9.39125633,0.00506321,-0.01393803,-0.00199089
3868.571457,0.99997199,0.00252737,-0.00697135,-0.00098951,0.00213053,-0.01278317,-0.01917476,-0.09576806,-0.18794483,9.32541561,0.00506890,-0.01393776,-0.00201440
3868.573357,0.99997199,0.00253541,-0.00696182,-0.00100572,0.00106526,0.00745685,-0.00852211,-0.09576806,-0.18794483,9.32541561,0.00508519,-0.01391859,-0.00204689
3868.575383,0.99997199,0.00253952,-0.00696272,-0.00101534,0.00319579,-0.00319579,-0.00532632,-0.09217677,-0.29688102,9.30745888,0.00509355,-0.01392034,-0.00206619
3868.577428,0.99997193,0.00254833,-0.00696447,-0.00101810,0.01597896,-0.01278317,-0.00745685,-0.09217677,-0.29688102,9.30745888,0.00511122,-0.01392382,-0.00207184
3868.579404,0.99997199,0.00256028,-0.00695870,-0.00103380,0.00745685,-0.00745685,-0.01384844,-0.05865794,-0.19393034,9.38167953,0.00513532,-0.01391216,-0.00210337
3868.581442,0.99997193,0.00256103,-0.00696237,-0.00103960,0.00106526,-0.00745685,-0.00958738,-0.05865794,-0.19393034,9.38167953,0.00513692,-0.01391948,-0.00211501
3868.583533,0.99997187,0.00256593,-0.00696215,-0.00104447,0.00852211,-0.00852211,-0.01171791,-0.05865794,-0.19393034,9.38167953,0.00514678,-0.01391900,-0.00212481
3868.585561,0.99997181,0.00257821,-0.00696578,-0.00105577,-0.00213053,-0.00639159,-0.00745685,-0.07900865,-0.14724341,9.33379555,0.00517152,-0.01392617,-0.00214761
3868.587480,0.99997175,0.00258264,-0.00696900,-0.00105844,0.00213053,-0.01171791,0.00106526,-0.07900865,-0.14724341,9.33379555,0.00518042,-0.01393259,-0.00215302
3868.589508,0.99997169,0.00258936,-0.00697682,-0.00106481,0.01171791,-0.02450108,-0.01491370,-0.07900865,-0.14724341,9.33379555,0.00519397,-0.01394818,-0.00216590
3868.591387,0.99997181,0.00258109,-0.00696640,-0.00106694,-0.00852211,-0.01278317,-0.00106526,-0.08379706,-0.08499416,9.31464195,0.00517742,-0.01392734,-0.00216999
3868.593544,0.99997181,0.00258052,-0.00696640,-0.00107117,-0.01171791,-0.01171791,-0.00532632,-0.08379706,-0.08499416,9.31464195,0.00517635,-0.01392733,-0.00217845
3868.595464,0.99997175,0.00258029,-0.00697099,-0.00107588,-0.00319579,-0.01810949,-0.01171791,-0.06105214,-0.08978257,9.30745888,0.00517596,-0.01393648,-0.00218789
3868.597349,0.99997175,0.00257698,-0.00697255,-0.00107152,-0.00426106,-0.01384844,-0.00106526,-0.06105214,-0.08978257,9.30745888,0.00516929,-0.01393964,-0.00217913
3868.599487,0.99997175,0.00256742,-0.00697831,-0.00107019,-0.00426106,-0.01917476,-0.00213053,-0.03351882,-0.10414778,9.26077175,0.00515016,-0.01395118,-0.00217636
3868.601507,0.99997175,0.00256860,-0.00698024,-0.00106590,-0.00106526,-0.01278317,0.00639159,-0.03351882,-0.10414778,9.26077175,0.00515245,-0.01395506,-0.00216781
3868.603403,0.99997169,0.00256418,-0.00698996,-0.00105394,-0.01491370,-0.01065264,0.01171791,-0.03351882,-0.10414778,9.26077175,0.00514348,-0.01397457,-0.00214387
3868.605453,0.99997169,0.00256310,-0.00699038,-0.00104803,-0.00213053,-0.01171791,0.00426106,-0.03471592,-0.20111294,9.33738708,0.00514123,-0.01397545,-0.00213205
3868.607447,0.99997169,0.00256783,-0.00699455,-0.00104058,0.00639159,-0.01704423,0.01278317,-0.03471592,-0.20111294,9.33738708,0.00515060,-0.01398382,-0.00211722
3868.609431,0.99997157,0.00257350,-0.00700462,-0.00102717,0.00532632,-0.00532632,0.00958738,-0.03830723,-0.21906945,9.34456921,0.00516177,-0.01400402,-0.00209055
3868.611473,0.99997157,0.00257851,-0.00700574,-0.00102030,0.00852211,-0.00639159,0.01065264,-0.03830723,-0.21906945,9.34456921,0.00517171,-0.01400627,-0.00207687
3868.613470,0.99997151,0.00258490,-0.00700740,-0.00101877,0.01065264,-0.01171791,0.00106526,-0.03830723,-0.21906945,9.34456921,0.00518447,-0.01400959,-0.00207391
3868.615445,0.99997145,0.00260042,-0.00701350,-0.00100185,0.00000000,-0.00745685,0.00958738,0.02513912,-0.16041151,9.36252594,0.00521529,-0.01402185,-0.00204033
3868.617457,0.99997145,0.00260212,-0.00701314,-0.00099389,0.00106526,-0.00745685,0.01384844,0.02513912,-0.16041151,9.36252594,0.00521857,-0.01402117,-0.00202442
3868.619564,0.99997151,0.00261032,-0.00701526,-0.00097907,-0.00106526,-0.00319579,0.01491370,0.02513912,-0.16041151,9.36252594,0.00523477,-0.01402547,-0.00199490
3868.621348,0.99997151,0.00260921,-0.00702236,-0.00096509,-0.00852211,-0.00958738,0.00426106,0.02992752,-0.03471592,9.32781029,0.00523236,-0.01403974,-0.00196696
3868.623437,0.99997157,0.00260408,-0.00701749,-0.00095442,-0.00532632,-0.00426106,0.00213053,0.02992752,-0.03471592,9.32781029,0.00522194,-0.01403006,-0.00194553
3868.625345,0.99997157,0.00260269,-0.00701904,-0.00095117,-0.00639159,-0.01065264,0.00426106,-0.04908114,-0.02753332,9.36491966,0.00521912,-0.01403318,-0.00193902
3868.627443,0.99997163,0.00258888,-0.00701381,-0.00094143,-0.02130529,-0.00745685,-0.00532632,-0.04908114,-0.02753332,9.36491966,0.00519134,-0.01402282,-0.00191932
3868.629406,0.99997169,0.00257761,-0.00700479,-0.00093019,-0.02237055,-0.00213053,0.01065264,-0.00718261,-0.16639702,9.30506516,0.00516864,-0.01400485,-0.00189663
3868.631415,0.99997175,0.00257372,-0.00700456,-0.00092427,-0.01171791,-0.00745685,0.00958738,-0.00718261,-0.16639702,9.30506516,0.00516077,-0.01400442,-0.00188473
3868.633448,0.99997187,0.00255456,-0.00699816,-0.00091500,-0.01278317,-0.00106526,0.00426106,-0.00718261,-0.16639702,9.30506516,0.00512231,-0.01399172,-0.00186589
3868.635428,0.99997187,0.00256179,-0.00699475,-0.00091622,0.00426106,0.00000000,0.00319579,-0.01675941,-0.23223756,9.32421875,0.00513678,-0.01398486,-0.00186841
3868.637394,0.99997181,0.00255996,-0.00700257,-0.00091341,-0.00639159,-0.02343581,0.00319579,-0.01675941,-0.23223756,9.32421875,0.00513310,-0.01400052,-0.00186280
3868.639345,0.99997175,0.00258409,-0.00699892,-0.00091329,0.00958738,-0.00745685,-0.00745685,-0.08379706,-0.34596214,9.32781029,0.00518135,-0.01399318,-0.00186289
3868.641416,0.99997169,0.00259081,-0.00700205,-0.00091335,-0.00106526,-0.01491370,-0.00106526,-0.08379706,-0.34596214,9.32781029,0.00519480,-0.01399943,-0.00186311
3868.643282,0.99997169,0.00259657,-0.00700437,-0.00091607,0.01065264,-0.01278317,-0.00745685,-0.08379706,-0.34596214,9.32781029,0.00520636,-0.01400405,-0.00186864
3868.645501,0.99997163,0.00261236,-0.00700398,-0.00090513,0.01278317,-0.00745685,0.00213053,-0.04429273,-0.16998832,9.29309368,0.00523780,-0.01400328,-0.00184698
3868.647506,0.99997169,0.00261762,-0.00700095,-0.00091005,0.00958738,-0.00213053,-0.01171791,-0.04429273,-0.16998832,9.29309368,0.00524838,-0.01399720,-0.00185687
3868.649452,0.99997169,0.00261504,-0.00699871,-0.00091590,-0.00852211,-0.00213053,0.00000000,-0.02753332,-0.04548983,9.36372280,0.00524329,-0.01399268,-0.00186853
3868.651487,0.99997181,0.00261354,-0.00698257,-0.00092143,-0.00745685,0.00745685,-0.01278317,-0.02753332,-0.04548983,9.36372280,0.00524034,-0.01396039,-0.00187949
3868.653512,0.99997181,0.00260656,-0.00698347,-0.00092823,-0.01171791,-0.01065264,-0.00745685,-0.10893618,-0.11252748,9.38048267,0.00522647,-0.01396215,-0.00189299
3868.655455,0.99997181,0.00260469,-0.00698303,-0.00093352,-0.00639159,-0.00745685,-0.01278317,-0.10893618,-0.11252748,9.38048267,0.00522280,-0.01396126,-0.00190356
3868.657396,0.99997193,0.00258016,-0.00697810,-0.00094385,-0.02343581,-0.01065264,-0.01171791,-0.10893618,-0.11252748,9.38048267,0.00517386,-0.01395139,-0.00192385
3868.659477,0.99997193,0.00256730,-0.00697901,-0.00096653,-0.01491370,-0.00958738,-0.02343581,-0.12808979,-0.14365210,9.30626202,0.00514848,-0.01395313,-0.00196903
3868.661426,0.99997193,0.00255949,-0.00697571,-0.00097069,-0.01384844,-0.00958738,-0.00745685,-0.12808979,-0.14365210,9.30626202,0.00513291,-0.01394652,-0.00197724
3868.663465,0.99997205,0.00255735,-0.00696381,-0.00097721,-0.00532632,0.00532632,-0.00532632,-0.07661445,-0.26216510,9.30267048,0.00512870,-0.01392268,-0.00199017
3868.665492,0.99997193,0.00256426,-0.00696214,-0.00098691,0.00745685,-0.00639159,0.00319579,-0.07661445,-0.26216510,9.30267048,0.00514264,-0.01391928,-0.00200966
3868.667509,0.99997193,0.00256728,-0.00696506,-0.00099223,0.00426106,-0.01491370,-0.01278317,-0.07661445,-0.26216510,9.30267048,0.00514876,-0.01392508,-0.00202036
3868.669516,0.99997181,0.00257074,-0.00697486,-0.00101609,0.00000000,-0.02130529,-0.02663161,-0.07062895,-0.24779987,9.36851120,0.00515604,-0.01394455,-0.00206819
3868.671479,0.99997181,0.00257529,-0.00697899,-0.00103313,-0.00106526,-0.00319579,-0.00106526,-0.07062895,-0.24779987,9.36851120,0.00516538,-0.01395272,-0.00210235
3868.673499,0.99997175,0.00257220,-0.00697710,-0.00103257,-0.00745685,-0.00532632,-0.00106526,-0.07062895,-0.24779987,9.36851120,0.00515918,-0.01394894,-0.00210118
3868.675269,0.99997175,0.00259137,-0.00697505,-0.00104406,0.01384844,-0.00958738,-0.01384844,-0.13168110,-0.22984336,9.32781029,0.00519769,-0.01394476,-0.00212442
3868.677349,0.99997175,0.00259180,-0.00697207,-0.00105315,0.00000000,-0.00106526,-0.01065264,-0.13168110,-0.22984336,9.32781029,0.00519868,-0.01393874,-0.00214260
3868.679257,0.99997175,0.00259523,-0.00696995,-0.00105270,0.00532632,-0.00532632,-0.00106526,-0.10773908,-0.02873042,9.35055447,0.00520551,-0.01393449,-0.00214172
3868.681214,0.99997175,0.00259306,-0.00696528,-0.00106069,-0.01065264,-0.00213053,-0.00958738,-0.10773908,-0.02873042,9.35055447,0.00520128,-0.01392511,-0.00215765
3868.683413,0.99997187,0.00258789,-0.00696374,-0.00106433,-0.01278317,-0.00639159,-0.00106526,-0.07900865,-0.04070143,9.39245319,0.00519099,-0.01392203,-0.00216486
3868.685488,0.99997181,0.00258374,-0.00696327,-0.00106158,-0.01065264,-0.00745685,0.00000000,-0.07900865,-0.04070143,9.39245319,0.00518265,-0.01392112,-0.00215929
3868.687451,0.99997187,0.00257342,-0.00696298,-0.00106566,-0.01491370,-0.00745685,-0.00852211,-0.07900865,-0.04070143,9.39245319,0.00516206,-0.01392054,-0.00216730
3868.689557,0.99997193,0.00256318,-0.00695795,-0.00106022,-0.01065264,-0.00426106,0.00532632,-0.03711013,-0.14365210,9.29309368,0.00514150,-0.01391051,-0.00215625
3868.691506,0.99997193,0.00255701,-0.00695756,-0.00105266,-0.01597896,-0.00852211,0.01278317,-0.03711013,-0.14365210,9.29309368,0.00512905,-0.01390979,-0.00214104
3868.693486,0.99997193,0.00254496,-0.00696185,-0.00104706,-0.00532632,-0.01597896,0.01065264,-0.03711013,-0.14365210,9.29309368,0.00510487,-0.01391844,-0.00212970
3868.695357,0.99997193,0.00254310,-0.00696180,-0.00103474,0.00639159,-0.01597896,0.00639159,-0.04429273,-0.21428105,9.30267048,0.00510098,-0.01391840,-0.00210505
3868.697424,0.99997193,0.00254784,-0.00696527,-0.00102782,0.00000000,-0.00639159,0.00426106,-0.04429273,-0.21428105,9.30267048,0.00511036,-0.01392536,-0.00209128
3868.699470,0.99997193,0.00255432,-0.00696733,-0.00102468,0.00745685,-0.01810949,-0.00106526,-0.02394202,-0.23942018,9.36970806,0.00512330,-0.01392948,-0.00208511
3868.701478,0.99997181,0.00257271,-0.00697278,-0.00102594,0.01704423,-0.01597896,0.00000000,-0.02394202,-0.23942018,9.36970806,0.00516010,-0.01394034,-0.00208790
3868.703482,0.99997181,0.00257947,-0.00697495,-0.00102281,0.01171791,-0.01278317,0.00426106,-0.02394202,-0.23942018,9.36970806,0.00517359,-0.01394469,-0.00208175
3868.705416,0.99997175,0.00259779,-0.00697102,-0.00100556,0.01278317,-0.00532632,0.00213053,0.00837971,-0.18315643,9.30626202,0.00520998,-0.01393688,-0.00204748
3868.707510,0.99997175,0.00260406,-0.00696965,-0.00100141,0.01065264,-0.00532632,0.00639159,0.00837971,-0.18315643,9.30626202,0.00522245,-0.01393414,-0.00203927
3868.709527,0.99997175,0.00261322,-0.00698429,-0.00098375,0.01065264,-0.01704423,0.01065264,0.00718261,-0.05626374,9.32302189,0.00524057,-0.01396350,-0.00200415
3868.711533,0.99997169,0.00261103,-0.00698142,-0.00098536,-0.01278317,0.00000000,-0.00106526,0.00718261,-0.05626374,9.32302189,0.00523620,-0.01395775,-0.00200731
3868.713456,0.99997181,0.00260076,-0.00698387,-0.00098409,-0.01810949,-0.01065264,-0.00745685,-0.02633622,-0.02992752,9.43674564,0.00521564,-0.01396269,-0.00200465
3868.715527,0.99997181,0.00259948,-0.00698462,-0.00097925,0.00000000,-0.01065264,0.00106526,-0.02633622,-0.02992752,9.43674564,0.00521301,-0.01396422,-0.00199496
3868.717310,0.99997187,0.00258114,-0.00698299,-0.00096140,-0.02130529,-0.00106526,0.01597896,-0.02633622,-0.02992752,9.43674564,0.00517610,-0.01396108,-0.00195899
3868.719932,0.99997181,0.00257772,-0.00698221,-0.00095709,-0.01065264,-0.00639159,0.00639159,-0.04189853,-0.17238252,9.29548836,0.00516919,-0.01395955,-0.00195032
3868.721632,0.99997187,0.00257169,-0.00698062,-0.00095009,-0.01704423,0.00213053,0.00319579,-0.04189853,-0.17238252,9.29548836,0.00515702,-0.01395641,-0.00193621
3868.723417,0.99997187,0.00256702,-0.00698531,-0.00094141,-0.00745685,-0.01597896,0.00426106,-0.04189853,-0.17238252,9.29548836,0.00514757,-0.01396585,-0.00191882
3868.725540,0.99997187,0.00256165,-0.00698796,-0.00093489,-0.00106526,-0.01171791,-0.00319579,0.02873042,-0.22026655,9.25598335,0.00513675,-0.01397119,-0.00190571
3868.727675,0.99997181,0.00256557,-0.00699213,-0.00093222,0.00532632,-0.01597896,0.00319579,0.02873042,-0.22026655,9.25598335,0.00514455,-0.01397954,-0.00190045
3868.729668,0.99997181,0.00257695,-0.00698993,-0.00093509,0.01171791,-0.01384844,-0.00319579,-0.02992752,-0.33159694,9.34935760,0.00516736,-0.01397509,-0.00190635
3868.731587,0.99997169,0.00259240,-0.00699783,-0.00094214,0.00852211,-0.01171791,-0.01171791,-0.02992752,-0.33159694,9.34935760,0.00519837,-0.01399084,-0.00192070
3868.733379,0.99997163,0.00259965,-0.00700417,-0.00094696,0.01384844,-0.02024002,-0.01171791,-0.02992752,-0.33159694,9.34935760,0.00521295,-0.01400348,-0.00193047
3868.735506,0.99997163,0.00262331,-0.00700331,-0.00094521,0.02024002,-0.01384844,-0.00319579,-0.09097967,-0.22146365,9.27753162,0.00526026,-0.01400172,-0.00192729
3868.737617,0.99997151,0.00263424,-0.00700677,-0.00094958,0.00958738,-0.00319579,-0.00213053,-0.09097967,-0.22146365,9.27753162,0.00528218,-0.01400859,-0.00193622
3868.739445,0.99997157,0.00263761,-0.00700439,-0.00095606,-0.01171791,0.00000000,0.00000000,-0.02753332,-0.08259996,9.32062721,0.00528900,-0.01400380,-0.00194921
3868.741492,0.99997163,0.00263145,-0.00699560,-0.00095716,-0.01597896,0.00213053,-0.00426106,-0.02753332,-0.08259996,9.32062721,0.00527667,-0.01398623,-0.00195127
3868.743624,0.99997157,0.00262617,-0.00699753,-0.00096130,-0.00852211,-0.01704423,0.00532632,-0.06464344,-0.09337386,9.38886166,0.00526618,-0.01399007,-0.00195950
3868.745531,0.99997163,0.00262624,-0.00699986,-0.00096766,-0.00213053,-0.01278317,-0.01491370,-0.06464344,-0.09337386,9.38886166,0.00526642,-0.01399469,-0.00197222
3868.747481,0.99997169,0.00260305,-0.00700117,-0.00097472,-0.01917476,0.00000000,-0.00639159,-0.06464344,-0.09337386,9.38886166,0.00522014,-0.01399733,-0.00198604
3868.749662,0.99997169,0.00260298,-0.00699897,-0.00098433,-0.00426106,-0.00958738,-0.01917476,-0.14006080,-0.17357962,9.34217548,0.00522012,-0.01399288,-0.00200523
3868.751640,0.99997157,0.00258837,-0.00700180,-0.00099523,-0.01171791,-0.01491370,-0.01704423,-0.14006080,-0.17357962,9.34217548,0.00519106,-0.01399850,-0.00202685
3868.753579,0.99997169,0.00258164,-0.00699478,-0.00100533,-0.01171791,-0.00745685,-0.01597896,-0.12449849,-0.20829555,9.30626202,0.00517773,-0.01398444,-0.00204692
3868.755223,0.99997163,0.00258747,-0.00699659,-0.00101284,0.00958738,-0.01278317,-0.01704423,-0.12449849,-0.20829555,9.30626202,0.00518950,-0.01398800,-0.00206203
3868.757399,0.99997157,0.00259044,-0.00700173,-0.00102983,0.00745685,-0.01704423,-0.02343581,-0.12449849,-0.20829555,9.30626202,0.00519568,-0.01399818,-0.00209609
3868.759454,0.99997151,0.00259730,-0.00700373,-0.00105012,0.00213053,-0.00106526,-0.01278317,-0.07062895,-0.22266077,9.33858395,0.00520969,-0.01400207,-0.00213677
3868.761439,0.99997157,0.00259973,-0.00700121,-0.00105338,0.00319579,-0.00426106,-0.00852211,-0.07062895,-0.22266077,9.33858395,0.00521459,-0.01399701,-0.00214332
3868.763516,0.99997139,0.00261422,-0.00701456,-0.00106350,0.00532632,-0.02024002,-0.00852211,-0.08259996,-0.24181437,9.36252594,0.00524375,-0.01402362,-0.00216383
3868.765546,0.99997133,0.00262505,-0.00700863,-0.00107333,0.01065264,-0.00532632,-0.01065264,-0.08259996,-0.24181437,9.36252594,0.00526553,-0.01401168,-0.00218360
3868.767675,0.99997127,0.00262994,-0.00701625,-0.00107275,0.00852211,-0.02450108,-0.00106526,-0.08259996,-0.24181437,9.36252594,0.00527534,-0.01402691,-0.00218256
3868.769744,0.99997133,0.00262216,-0.00701552,-0.00107689,-0.01704423,-0.00532632,-0.00426106,-0.13527240,-0.08499416,9.33140087,0.00525983,-0.01402545,-0.00219073
3868.771476,0.99997133,0.00260954,-0.00701568,-0.00108306,-0.00532632,-0.01065264,-0.00213053,-0.13527240,-0.08499416,9.33140087,0.00523466,-0.01402576,-0.00220288
3868.773363,0.99997139,0.00260290,-0.00700872,-0.00108783,-0.01065264,0.00319579,0.00319579,-0.11013328,-0.02513912,9.41759205,0.00522144,-0.01401183,-0.00221229
3868.775413,0.99997139,0.00260322,-0.00701077,-0.00108990,0.00106526,-0.01704423,-0.00213053,-0.11013328,-0.02513912,9.41759205,0.00522211,-0.01401593,-0.00221646
3868.777454,0.99997151,0.00258811,-0.00700683,-0.00108436,-0.02130529,-0.00745685,0.01065264,-0.11013328,-0.02513912,9.41759205,0.00519180,-0.01400812,-0.00220516
3868.779496,0.99997145,0.00257941,-0.00700964,-0.00108842,-0.01917476,-0.01171791,-0.01278317,-0.03950433,-0.08020575,9.32182407,0.00517447,-0.01401373,-0.00221315
3868.781477,0.99997145,0.00257586,-0.00701304,-0.00109309,-0.01065264,-0.01597896,-0.01171791,-0.03950433,-0.08020575,9.32182407,0.00516743,-0.01402052,-0.00222247
3868.783508,0.99997133,0.00257550,-0.00702659,-0.00109497,0.00000000,-0.01171791,-0.00213053,-0.00957681,-0.17836803,9.29189682,0.00516677,-0.01404760,-0.00222629
3868.785589,0.99997127,0.00257193,-0.00703537,-0.00109369,-0.00852211,-0.02130529,-0.00532632,-0.00957681,-0.17836803,9.29189682,0.00515964,-0.01406518,-0.00222374
3868.787604,0.99997133,0.00257193,-0.00703904,-0.00109203,-0.00319579,-0.01597896,0.00106526,-0.00957681,-0.17836803,9.29189682,0.00515962,-0.01407252,-0.00222043
3868.789696,0.99997127,0.00257830,-0.00704542,-0.00108455,0.00745685,-0.00639159,0.00852211,-0.02513912,-0.26216510,9.37928486,0.00517228,-0.01408531,-0.00220559
3868.791606,0.99997121,0.00259122,-0.00704391,-0.00107783,0.01384844,-0.00532632,0.01171791,-0.02513912,-0.26216510,9.37928486,0.00519801,-0.01408230,-0.00219233
3868.793568,0.99997121,0.00259753,-0.00704396,-0.00106354,0.00213053,-0.01065264,0.01384844,-0.03112462,-0.20949265,9.33858395,0.00521044,-0.01408245,-0.00216383
3868.795691,0.99997127,0.00260475,-0.00703132,-0.00105371,0.00000000,0.00106526,0.01384844,-0.03112462,-0.20949265,9.33858395,0.00522472,-0.01405721,-0.00214420
3868.797609,0.99997121,0.00261265,-0.00703561,-0.00104471,0.01384844,-0.01704423,0.01597896,-0.03112462,-0.20949265,9.33858395,0.00524038,-0.01406582,-0.00212633
3868.799654,0.99997121,0.00262306,-0.00704036,-0.00103094,0.00213053,-0.00639159,0.00639159,0.02753332,-0.09217677,9.28591156,0.00526103,-0.01407537,-0.00209896
3868.801658,0.99997115,0.00262119,-0.00704579,-0.00102390,-0.01065264,-0.01704423,0.00745685,0.02753332,-0.09217677,9.28591156,0.00525720,-0.01408628,-0.00208489
3868.803638,0.99997121,0.00260817,-0.00704805,-0.00101674,-0.00745685,-0.01810949,-0.00106526,-0.02035072,-0.00359130,9.34337234,0.00523106,-0.01409086,-0.00207039
3868.805400,0.99997115,0.00259670,-0.00705354,-0.00101327,-0.00958738,-0.00852211,-0.00106526,-0.02035072,-0.00359130,9.34337234,0.00520810,-0.01410187,-0.00206333
3868.807691,0.99997121,0.00258126,-0.00705629,-0.00100819,-0.02450108,-0.00958738,0.00213053,-0.04548983,-0.17597382,9.35534286,0.00517714,-0.01410744,-0.00205295
3868.809656,0.99997133,0.00256714,-0.00705358,-0.00100161,-0.01917476,-0.00532632,0.00319579,-0.04548983,-0.17597382,9.35534286,0.00514881,-0.01410209,-0.00203958
3868.811464,0.99997133,0.00255708,-0.00705536,-0.00099663,-0.02343581,-0.01171791,0.00745685,-0.04548983,-0.17597382,9.35534286,0.00512861,-0.01410569,-0.00202949
3868.813761,0.99997133,0.00255094,-0.00705600,-0.00098319,0.00213053,-0.01171791,0.00213053,0.00598550,-0.21906945,9.26436329,0.00511613,-0.01410705,-0.00200253
3868.815625,0.99997139,0.00255552,-0.00705832,-0.00098322,0.00319579,-0.00852211,-0.00426106,0.00598550,-0.21906945,9.26436329,0.00512531,-0.01411167,-0.00200267
3868.817625,0.99997139,0.00255671,-0.00705279,-0.00097906,0.00000000,0.00319579,0.00639159,0.00598550,-0.21906945,9.26436329,0.00512762,-0.01410064,-0.00199433
3868.819714,0.99997145,0.00255613,-0.00704067,-0.00097124,0.00213053,0.00106526,0.00639159,-0.01915361,-0.26216510,9.33618927,0.00512633,-0.01407643,-0.00197862
3868.821430,0.99997139,0.00257968,-0.00704617,-0.00097632,0.01810949,-0.01597896,-0.00745685,-0.01915361,-0.26216510,9.33618927,0.00517350,-0.01408736,-0.00198913
3868.823620,0.99997139,0.00258721,-0.00704948,-0.00098118,0.00319579,-0.01278317,-0.00958738,-0.07422026,-0.26455930,9.37689114,0.00518864,-0.01409395,-0.00199898
3868.825644,0.99997133,0.00259619,-0.00705094,-0.00098236,0.00852211,-0.01278317,0.00532632,-0.07422026,-0.26455930,9.37689114,0.00520663,-0.01409685,-0.00200148
3868.827615,0.99997115,0.00261201,-0.00705288,-0.00099003,0.00958738,-0.00958738,-0.00745685,-0.06943185,-0.09217677,9.28112316,0.00523839,-0.01410065,-0.00201705
3868.829389,0.99997115,0.00261732,-0.00704603,-0.00098808,0.00000000,-0.00532632,0.00639159,-0.06943185,-0.09217677,9.28112316,0.00524897,-0.01408695,-0.00201318
3868.831591,0.99997127,0.00261389,-0.00704026,-0.00099343,-0.00319579,-0.00106526,-0.00745685,-0.06943185,-0.09217677,9.28112316,0.00524217,-0.01407538,-0.00202381
3868.833601,0.99997127,0.00260402,-0.00703451,-0.00099815,-0.01491370,-0.00106526,0.00106526,-0.03351882,-0.05267244,9.38167953,0.00522248,-0.01406388,-0.00203308
3868.835612,0.99997133,0.00259502,-0.00703903,-0.00100805,-0.00958738,-0.01810949,-0.01171791,-0.03351882,-0.05267244,9.38167953,0.00520463,-0.01407289,-0.00205278
3868.837596,0.99997127,0.00259266,-0.00704300,-0.00101806,-0.00213053,-0.01278317,-0.00852211,-0.09816227,-0.14484920,9.39484787,0.00520005,-0.01408079,-0.00207279
3868.839335,0.99997133,0.00258283,-0.00703127,-0.00102499,-0.01491370,0.00213053,-0.00532632,-0.09816227,-0.14484920,9.39484787,0.00518045,-0.01405731,-0.00208645
3868.841479,0.99997139,0.00257673,-0.00702570,-0.00102709,-0.00639159,-0.00639159,-0.01278317,-0.09816227,-0.14484920,9.39484787,0.00516827,-0.01404618,-0.00209054
3868.843455,0.99997145,0.00257029,-0.00702222,-0.00103715,-0.00852211,-0.00319579,-0.01278317,-0.10654198,-0.19871874,9.30865574,0.00515553,-0.01403918,-0.00211055
3868.845390,0.99997151,0.00257489,-0.00701799,-0.00104152,0.01065264,-0.00213053,-0.00639159,-0.10654198,-0.19871874,9.30865574,0.00516478,-0.01403068,-0.00211934
3868.847488,0.99997151,0.00257192,-0.00701414,-0.00104205,-0.01171791,-0.00426106,-0.00106526,-0.09097967,-0.18315643,9.32781029,0.00515884,-0.01402297,-0.00212032
3868.849675,0.99997145,0.00257670,-0.00701732,-0.00105164,0.00319579,-0.01065264,-0.01278317,-0.09097967,-0.18315643,9.32781029,0.00516855,-0.01402927,-0.00213960
3868.851479,0.99997151,0.00258091,-0.00701777,-0.00105914,0.00639159,-0.00958738,-0.01065264,-0.09097967,-0.18315643,9.32781029,0.00517707,-0.01403014,-0.00215465
3868.853553,0.99997145,0.00258601,-0.00701779,-0.00106612,0.00426106,-0.00639159,-0.01384844,-0.05386954,-0.22146365,9.37449646,0.00518737,-0.01403012,-0.00216869
3868.855478,0.99997139,0.00259634,-0.00702369,-0.00106724,0.00745685,-0.01491370,0.00319579,-0.05386954,-0.22146365,9.37449646,0.00520807,-0.01404190,-0.00217111
3868.857503,0.99997133,0.00259645,-0.00702055,-0.00106887,-0.00319579,-0.00426106,-0.00426106,-0.11851298,-0.18435353,9.31105042,0.00520829,-0.01403562,-0.00217436
3868.859422,0.99997139,0.00260234,-0.00702107,-0.00107640,0.01278317,-0.00532632,-0.00852211,-0.11851298,-0.18435353,9.31105042,0.00522017,-0.01403659,-0.00218949
3868.861369,0.99997133,0.00261373,-0.00702022,-0.00107337,0.01384844,-0.00852211,0.00319579,-0.11851298,-0.18435353,9.31105042,0.00524291,-0.01403488,-0.00218359
3868.863598,0.99997127,0.00261427,-0.00702470,-0.00107968,-0.00532632,-0.01810949,-0.01704423,-0.12210429,-0.03351882,9.34456921,0.00524409,-0.01404381,-0.00219624
3868.865402,0.99997133,0.00261057,-0.00702053,-0.00108498,-0.00639159,-0.00213053,-0.00426106,-0.12210429,-0.03351882,9.34456921,0.00523677,-0.01403545,-0.00220678
3868.867573,0.99997133,0.00260840,-0.00701948,-0.00108600,-0.01171791,-0.01278317,-0.00426106,-0.05985504,-0.07182605,9.37449646,0.00523244,-0.01403335,-0.00220877
3868.869657,0.99997133,0.00260744,-0.00702163,-0.00108327,-0.00532632,-0.01384844,0.00319579,-0.05985504,-0.07182605,9.37449646,0.00523049,-0.01403768,-0.00220332
3868.871468,0.99997151,0.00259532,-0.00701068,-0.00107148,-0.01171791,-0.00213053,0.00426106,-0.05985504,-0.07182605,9.37449646,0.00520604,-0.01401586,-0.00217951
3868.873483,0.99997157,0.00258612,-0.00699981,-0.00106029,-0.01810949,-0.00532632,0.00532632,-0.04070143,-0.15921441,9.26915169,0.00518748,-0.01399419,-0.00215694
3868.875645,0.99997157,0.00258820,-0.00700638,-0.00106499,0.00106526,-0.01491370,-0.00958738,-0.04070143,-0.15921441,9.26915169,0.00519170,-0.01400731,-0.00216641
3868.877512,0.99997151,0.00258745,-0.00700873,-0.00106226,-0.00426106,-0.01491370,0.00745685,-0.01675941,-0.25977087,9.34097767,0.00519018,-0.01401203,-0.00216095
3868.879422,0.99997145,0.00259524,-0.00701555,-0.00105960,0.00958738,-0.02130529,-0.00319579,-0.01675941,-0.25977087,9.34097767,0.00520574,-0.01402565,-0.00215577
3868.881668,0.99997139,0.00260163,-0.00701929,-0.00105857,0.01065264,-0.01597896,0.00000000,-0.01675941,-0.25977087,9.34097767,0.00521852,-0.01403313,-0.00215382
3868.883618,0.99997145,0.00260786,-0.00701664,-0.00104378,0.00000000,0.00106526,0.01171791,-0.02753332,-0.20231004,9.33379555,0.00523075,-0.01402790,-0.00212430
3868.885614,0.99997139,0.00262045,-0.00701779,-0.00103223,0.00745685,-0.00319579,0.01597896,-0.02753332,-0.20231004,9.33379555,0.00525579,-0.01403022,-0.00210138
3868.887361,0.99997133,0.00263461,-0.00702220,-0.00102065,0.01065264,-0.01597896,0.00639159,-0.01556231,-0.17717093,9.30745888,0.00528394,-0.01403907,-0.00207845
3868.889404,0.99997133,0.00264131,-0.00701394,-0.00101181,0.00213053,-0.00426106,0.01171791,-0.01556231,-0.17717093,9.30745888,0.00529721,-0.01402260,-0.00206083
3868.891452,0.99997133,0.00265133,-0.00701580,-0.00099702,0.00745685,-0.01065264,0.01491370,-0.01556231,-0.17717093,9.30745888,0.00531705,-0.01402638,-0.00203138
3868.893455,0.99997139,0.00265537,-0.00702217,-0.00098526,-0.00213053,-0.01065264,0.01384844,0.03232172,-0.03711013,9.33499241,0.00532498,-0.01403917,-0.00200796
3868.895482,0.99997151,0.00263747,-0.00701126,-0.00098035,-0.01278317,-0.00106526,0.00106526,0.03232172,-0.03711013,9.33499241,0.00528907,-0.01401741,-0.00199783
3868.897249,0.99997145,0.00262633,-0.00702067,-0.00097364,-0.02450108,-0.02237055,0.00426106,-0.03830723,-0.08619126,9.35534286,0.00526673,-0.01403629,-0.00198431
3868.899429,0.99997145,0.00262103,-0.00702219,-0.00097460,-0.01384844,-0.01065264,-0.00426106,-0.03830723,-0.08619126,9.35534286,0.00525614,-0.01403933,-0.00198616
3868.901623,0.99997157,0.00259324,-0.00702002,-0.00096620,-0.01384844,-0.00319579,0.01171791,-0.03830723,-0.08619126,9.35534286,0.00520043,-0.01403509,-0.00196896
3868.903467,0.99997157,0.00258264,-0.00701785,-0.00096074,-0.01171791,-0.00639159,0.00639159,-0.06584055,-0.20470424,9.30386734,0.00517915,-0.01403079,-0.00195786
3868.905653,0.99997169,0.00257122,-0.00701175,-0.00095319,-0.01384844,-0.00213053,0.01278317,-0.06584055,-0.20470424,9.30386734,0.00515618,-0.01401866,-0.00194257
3868.907421,0.99997175,0.00256745,-0.00700557,-0.00094469,-0.01171791,-0.00639159,0.00426106,-0.00718261,-0.27772740,9.25718117,0.00514851,-0.01400635,-0.00192548
3868.909662,0.99997169,0.00257375,-0.00701077,-0.00094044,0.00639159,-0.01065264,-0.00213053,-0.00718261,-0.27772740,9.25718117,0.00516107,-0.01401676,-0.00191710
3868.911509,0.99997175,0.00258072,-0.00700594,-0.00093582,-0.00106526,-0.00213053,0.00000000,-0.00718261,-0.27772740,9.25718117,0.00517493,-0.01400710,-0.00190794
3868.913557,0.99997163,0.00259514,-0.00701347,-0.00093913,0.00745685,-0.02130529,-0.00532632,-0.03591302,-0.30047232,9.33978081,0.00520385,-0.01402212,-0.00191480
3868.915424,0.99997151,0.00260703,-0.00702101,-0.00094613,0.01278317,-0.01171791,-0.00958738,-0.03591302,-0.30047232,9.33978081,0.00522774,-0.01403714,-0.00192900
3868.917665,0.99997151,0.00260622,-0.00701757,-0.00094937,-0.00213053,-0.00106526,-0.00852211,-0.03591302,-0.30047232,9.33978081,0.00522615,-0.01403025,-0.00193545
3868.919854,0.99997151,0.00261141,-0.00701947,-0.00094835,-0.00319579,-0.00852211,0.00213053,-0.08259996,-0.13886370,9.33379555,0.00523653,-0.01403405,-0.00193351
3868.921506,0.99997151,0.00261262,-0.00702286,-0.00095258,0.00000000,-0.01491370,-0.00639159,-0.08259996,-0.13886370,9.33379555,0.00523902,-0.01404081,-0.00194200
3868.923635,0.99997157,0.00260898,-0.00702284,-0.00095039,-0.01491370,-0.00426106,0.00106526,-0.05506664,-0.05985504,9.34456921,0.00523170,-0.01404078,-0.00193756
3868.925732,0.99997157,0.00258374,-0.00701371,-0.00094746,-0.01491370,-0.00532632,-0.00532632,-0.05506664,-0.05985504,9.34456921,0.00518116,-0.01402259,-0.00193130
3868.927435,0.99997163,0.00258053,-0.00701750,-0.00095533,-0.00639159,-0.01065264,-0.00958738,-0.09576806,-0.12210429,9.39484787,0.00517485,-0.01403013,-0.00194702
3868.929305,0.99997163,0.00257376,-0.00701571,-0.00095790,-0.01704423,-0.00639159,-0.00319579,-0.09576806,-0.12210429,9.39484787,0.00516134,-0.01402655,-0.00195205
3868.931441,0.99997163,0.00256585,-0.00701871,-0.00096890,-0.01278317,-0.01171791,-0.01491370,-0.09576806,-0.12210429,9.39484787,0.00514569,-0.01403251,-0.00197396
3868.933566,0.99997169,0.00256847,-0.00701169,-0.00097275,0.00319579,0.00000000,-0.00532632,-0.16400282,-0.22146365,9.32302189,0.00515096,-0.01401845,-0.00198166
3868.935588,0.99997163,0.00257078,-0.00700861,-0.00097600,0.00319579,-0.00852211,-0.00426106,-0.16400282,-0.22146365,9.32302189,0.00515563,-0.01401227,-0.00198818
3868.937450,0.99997169,0.00256435,-0.00700740,-0.00097696,-0.01597896,-0.00319579,-0.00106526,-0.12569559,-0.22864626,9.26795483,0.00514277,-0.01400984,-0.00199001
3868.939361,0.99997163,0.00257036,-0.00701155,-0.00098496,0.00639159,-0.01597896,-0.01384844,-0.12569559,-0.22864626,9.26795483,0.00515491,-0.01401810,-0.00200610
3868.941737,0.99997163,0.00256817,-0.00701246,-0.00099394,-0.01278317,-0.00958738,-0.00745685,-0.12569559,-0.22864626,9.26795483,0.00515066,-0.01401988,-0.00202405
3868.943523,0.99997163,0.00256802,-0.00701097,-0.00101099,0.00106526,-0.00426106,-0.02024002,-0.06823475,-0.17357962,9.32661247,0.00515060,-0.01401681,-0.00205814
3868.945444,0.99997151,0.00257643,-0.00701021,-0.00103029,0.00319579,-0.00852211,-0.02556634,-0.06823475,-0.17357962,9.32661247,0.00516768,-0.01401518,-0.00209685
3868.947696,0.99997151,0.00258179,-0.00701586,-0.00104305,0.00319579,-0.00213053,-0.00852211,-0.09337386,-0.17477672,9.33140087,0.00517859,-0.01402638,-0.00212248
3868.949473,0.99997139,0.00259211,-0.00702404,-0.00104679,0.00745685,-0.01491370,0.00106526,-0.09337386,-0.17477672,9.33140087,0.00519932,-0.01404271,-0.00213015
3868.951472,0.99997139,0.00258916,-0.00702051,-0.00105104,-0.00426106,-0.01171791,-0.00639159,-0.09337386,-0.17477672,9.33140087,0.00519346,-0.01403564,-0.00213859
3868.953485,0.99997139,0.00258860,-0.00702450,-0.00105894,-0.00958738,-0.00852211,-0.00639159,-0.09576806,-0.07781155,9.34217548,0.00519247,-0.01404358,-0.00215441
3868.955456,0.99997139,0.00258799,-0.00702517,-0.00105943,-0.00319579,-0.00745685,0.00000000,-0.09576806,-0.07781155,9.34217548,0.00519125,-0.01404492,-0.00215538
3868.957351,0.99997127,0.00258968,-0.00703136,-0.00106626,-0.00639159,-0.01384844,0.00000000,-0.06823475,-0.08259996,9.33618927,0.00519475,-0.01405725,-0.00216910
3868.959441,0.99997139,0.00258844,-0.00702854,-0.00107105,-0.00852211,-0.00213053,-0.00852211,-0.06823475,-0.08259996,9.33618927,0.00519233,-0.01405161,-0.00217865
3868.961668,0.99997151,0.00257364,-0.00701666,-0.00106938,-0.01171791,-0.00319579,-0.00532632,-0.05506664,-0.07781155,9.28950214,0.00516268,-0.01402788,-0.00217503
3868.963566,0.99997145,0.00256593,-0.00702193,-0.00106649,-0.01597896,-0.01704423,-0.00426106,-0.05506664,-0.07781155,9.28950214,0.00514723,-0.01403844,-0.00216917
3868.965493,0.99997145,0.00255723,-0.00702095,-0.00106794,-0.00745685,-0.00106526,0.00213053,-0.05506664,-0.07781155,9.28950214,0.00512984,-0.01403650,-0.00217195
3868.967549,0.99997151,0.00255015,-0.00702032,-0.00104918,-0.00319579,-0.01171791,0.01278317,-0.04309563,-0.20590134,9.27394009,0.00511541,-0.01403535,-0.00213431
3868.969482,0.99997151,0.00255221,-0.00702122,-0.00104705,0.00106526,-0.01065264,0.00213053,-0.04309563,-0.20590134,9.27394009,0.00511951,-0.01403716,-0.00213010
3868.971382,0.99997151,0.00254806,-0.00702580,-0.00104637,0.00426106,-0.01917476,0.00000000,-0.04309563,-0.20590134,9.27394009,0.00511121,-0.01404633,-0.00212870
3868.973376,0.99997145,0.00255543,-0.00702684,-0.00102833,-0.00106526,0.00000000,0.01597896,-0.06224924,-0.25737667,9.33978081,0.00512569,-0.01404849,-0.00209272
3868.975424,0.99997139,0.00257277,-0.00703613,-0.00102045,0.01384844,-0.02024002,0.00213053,-0.06224924,-0.25737667,9.33978081,0.00516029,-0.01406707,-0.00207726
3868.977245,0.99997139,0.00258071,-0.00703488,-0.00101206,0.01384844,-0.00639159,0.01491370,-0.02992752,-0.16280572,9.33140087,0.00517604,-0.01406459,-0.00206058
3868.979162,0.99997139,0.00259489,-0.00702880,-0.00099850,0.00639159,-0.00532632,0.00745685,-0.02992752,-0.16280572,9.33140087,0.00520421,-0.01405247,-0.00203363
3868.981655,0.99997139,0.00260030,-0.00702987,-0.00099004,-0.00426106,-0.00852211,0.01065264,0.00239420,-0.04548983,9.36491966,0.00521492,-0.01405465,-0.00201677
3868.983610,0.99997139,0.00260048,-0.00702894,-0.00099005,-0.00213053,-0.00639159,-0.00213053,0.00239420,-0.04548983,9.36491966,0.00521528,-0.01405280,-0.00201679
3868.985603,0.99997145,0.00260017,-0.00702474,-0.00098423,-0.00532632,-0.01278317,-0.00319579,0.00239420,-0.04548983,9.36491966,0.00521456,-0.01404442,-0.00200513
3868.987702,0.99997157,0.00258031,-0.00701868,-0.00097122,-0.02663161,-0.00639159,0.01384844,-0.02154781,-0.04429273,9.38886166,0.00517464,-0.01403241,-0.00197879
3868.989496,0.99997169,0.00255838,-0.00701128,-0.00097364,-0.02982740,0.00426106,-0.00852211,-0.02154781,-0.04429273,9.38886166,0.00513079,-0.01401764,-0.00198330
3868.991458,0.99997169,0.00254562,-0.00701928,-0.00097278,-0.01384844,-0.01704423,-0.00852211,-0.03711013,-0.18555063,9.29668522,0.00510527,-0.01403368,-0.00198144
3868.993623,0.99997181,0.00253216,-0.00700630,-0.00096050,-0.02130529,0.01065264,0.00958738,-0.03711013,-0.18555063,9.29668522,0.00507815,-0.01400779,-0.00195663
3868.995429,0.99997187,0.00252838,-0.00700284,-0.00096262,-0.01065264,-0.00106526,-0.00639159,-0.03711013,-0.18555063,9.29668522,0.00507063,-0.01400088,-0.00196079
3868.997675,0.99997181,0.00252670,-0.00700729,-0.00096092,0.00532632,-0.01278317,-0.00958738,-0.02274492,-0.25498247,9.29668522,0.00506725,-0.01400978,-0.00195738
3868.999484,0.99997181,0.00253424,-0.00700408,-0.00096054,0.00426106,-0.00106526,0.00000000,-0.02274492,-0.25498247,9.29668522,0.00508232,-0.01400336,-0.00195672
3869.001543,0.99997187,0.00254213,-0.00700011,-0.00096125,0.01384844,0.00000000,-0.00319579,-0.02274492,-0.25498247,9.29668522,0.00509809,-0.01399539,-0.00195823
3869.003465,0.99997175,0.00256013,-0.00700617,-0.00096090,0.00745685,-0.00958738,-0.00319579,-0.04070143,-0.32441434,9.32421875,0.00513410,-0.01400749,-0.00195782
3869.005623,0.99997169,0.00256590,-0.00700692,-0.00095992,0.01065264,-0.00958738,0.00000000,-0.04070143,-0.32441434,9.32421875,0.00514564,-0.01400897,-0.00195593
3869.007478,0.99997169,0.00258045,-0.00700841,-0.00096332,0.01171791,-0.00213053,-0.00639159,-0.08499416,-0.14963761,9.27513695,0.00517479,-0.01401190,-0.00196294
3869.009458,0.99997163,0.00258732,-0.00701198,-0.00097668,0.00106526,-0.01810949,-0.01597896,-0.08499416,-0.14963761,9.27513695,0.00518872,-0.01401897,-0.00198979
3869.011447,0.99997157,0.00258717,-0.00701310,-0.00098518,-0.01491370,0.00000000,-0.00852211,-0.08499416,-0.06224924,9.32062721,0.00518855,-0.01402116,-0.00200679
3869.013305,0.99997163,0.00257798,-0.00700611,-0.00099472,-0.00958738,-0.00639159,-0.01491370,-0.08499416,-0.06224924,9.32062721,0.00517029,-0.01400716,-0.00202571
3869.015638,0.99997157,0.00256873,-0.00701338,-0.00100191,-0.01597896,-0.01384844,-0.01065264,-0.08499416,-0.06224924,9.32062721,0.00515189,-0.01402167,-0.00204000
3869.017436,0.99997151,0.00255595,-0.00702211,-0.00100743,-0.01917476,-0.01597896,-0.00426106,-0.09337386,-0.11971009,9.36252594,0.00512643,-0.01403913,-0.00205090
3869.019535,0.99997157,0.00255147,-0.00702298,-0.00101000,-0.01171791,-0.01065264,-0.00745685,-0.09337386,-0.11971009,9.36252594,0.00511751,-0.01404086,-0.00205599
3869.021642,0.99997175,0.00252320,-0.00700680,-0.00101777,-0.01384844,0.00213053,-0.00958738,-0.10055647,-0.17717093,9.33618927,0.00506104,-0.01400852,-0.00207105
3869.023626,0.99997181,0.00251951,-0.00699499,-0.00102000,-0.00958738,0.00213053,-0.00958738,-0.10055647,-0.17717093,9.33618927,0.00505366,-0.01398490,-0.00207539
3869.025362,0.99997181,0.00252129,-0.00699683,-0.00102425,0.00106526,-0.01278317,-0.01065264,-0.10055647,-0.17717093,9.33618927,0.00505728,-0.01398856,-0.00208393
3869.027569,0.99997181,0.00251473,-0.00699568,-0.00102573,-0.00745685,-0.00958738,0.00958738,-0.10534488,-0.23463176,9.30027676,0.00504419,-0.01398627,-0.00208679
3869.029398,0.99997181,0.00251899,-0.00699524,-0.00102419,0.00639159,-0.00852211,0.00106526,-0.10534488,-0.23463176,9.30027676,0.00505268,-0.01398538,-0.00208378
3869.031297,0.99997175,0.00252454,-0.00700454,-0.00102838,0.00745685,-0.01597896,-0.00745685,-0.10534488,-0.23463176,9.30027676,0.00506386,-0.01400394,-0.00209228
3869.033355,0.99997169,0.00253788,-0.00700380,-0.00103870,0.01810949,-0.01065264,-0.01278317,-0.09217677,-0.20350714,9.35294914,0.00509069,-0.01400239,-0.00211309
3869.035534,0.99997163,0.00254603,-0.00700966,-0.00105575,0.00958738,-0.01171791,-0.00639159,-0.09217677,-0.20350714,9.35294914,0.00510724,-0.01401400,-0.00214735
3869.037474,0.99997169,0.00254627,-0.00700128,-0.00105213,-0.00213053,0.00426106,-0.00213053,-0.08738836,-0.15921441,9.34097767,0.00510766,-0.01399727,-0.00214007
3869.039740,0.99997163,0.00255027,-0.00700261,-0.00105429,0.00319579,-0.01171791,-0.00958738,-0.08738836,-0.15921441,9.34097767,0.00511568,-0.01399990,-0.00214444
3869.041472,0.99997163,0.00255070,-0.00700550,-0.00105476,-0.00745685,-0.01065264,0.00000000,-0.10773908,-0.11133038,9.34337234,0.00511657,-0.01400568,-0.00214541
3869.043473,0.99997157,0.00255193,-0.00700833,-0.00105578,-0.00532632,-0.01384844,0.00106526,-0.10773908,-0.11133038,9.34337234,0.00511903,-0.01401134,-0.00214748
3869.045466,0.99997163,0.00255065,-0.00700638,-0.00106056,-0.00958738,-0.00958738,-0.00213053,-0.10773908,-0.11133038,9.34337234,0.00511653,-0.01400740,-0.00215701
3869.047668,0.99997163,0.00254490,-0.00700970,-0.00105880,-0.01278317,-0.01810949,-0.00213053,-0.07781155,-0.09337386,9.33140087,0.00510501,-0.01401406,-0.00215342
3869.049474,0.99997157,0.00254317,-0.00701138,-0.00105767,-0.00639159,-0.01278317,0.00000000,-0.07781155,-0.09337386,9.33140087,0.00510155,-0.01401743,-0.00215115
3869.051481,0.99997169,0.00254580,-0.00700688,-0.00104814,0.00213053,-0.00745685,0.00745685,-0.04070143,-0.08978257,9.30506516,0.00510668,-0.01400848,-0.00213211
3869.053642,0.99997151,0.00254428,-0.00702068,-0.00104682,0.00000000,-0.03195793,0.00319579,-0.04070143,-0.08978257,9.30506516,0.00510364,-0.01403609,-0.00212951
3869.055467,0.99997157,0.00253956,-0.00702365,-0.00104669,-0.01278317,-0.01491370,-0.00213053,-0.04070143,-0.08978257,9.30506516,0.00509421,-0.01404204,-0.00212921
3869.057406,0.99997145,0.00253715,-0.00703013,-0.00104386,-0.00426106,-0.01491370,0.00426106,-0.01436521,-0.14604631,9.31943035,0.00508936,-0.01405503,-0.00212354
3869.059674,0.99997145,0.00253769,-0.00703701,-0.00104214,-0.00745685,-0.01384844,0.00319579,-0.01436521,-0.14604631,9.31943035,0.00509043,-0.01406880,-0.00212016
3869.061443,0.99997151,0.00253878,-0.00703268,-0.00102782,0.00106526,-0.00106526,0.00852211,-0.00478840,-0.23343466,9.36252594,0.00509240,-0.01406021,-0.00209151
3869.063365,0.99997145,0.00255159,-0.00703822,-0.00102047,0.01278317,-0.01491370,0.01171791,-0.00478840,-0.23343466,9.36252594,0.00511793,-0.01407130,-0.00207700
3869.065380,0.99997133,0.00256779,-0.00704655,-0.00101259,0.01384844,-0.01278317,0.00958738,-0.00478840,-0.23343466,9.36252594,0.00515024,-0.01408796,-0.00206152
3869.067397,0.99997133,0.00257330,-0.00703971,-0.00100318,0.00852211,0.00532632,0.01704423,-0.04309563,-0.15083471,9.33978081,0.00516112,-0.01407431,-0.00204274
3869.069886,0.99997139,0.00258049,-0.00704318,-0.00099418,0.00639159,-0.01384844,0.00639159,-0.04309563,-0.15083471,9.33978081,0.00517536,-0.01408129,-0.00202485
3869.071377,0.99997139,0.00259295,-0.00704285,-0.00096825,0.00426106,-0.00745685,0.01704423,0.00000000,-0.08858547,9.31823349,0.00519993,-0.01408073,-0.00197317
3869.073491,0.99997139,0.00258902,-0.00704513,-0.00096229,-0.01065264,-0.01278317,0.00958738,0.00000000,-0.08858547,9.31823349,0.00519199,-0.01408535,-0.00196121
3869.075502,0.99997145,0.00258010,-0.00703955,-0.00095583,-0.02130529,-0.00213053,0.00319579,0.00000000,-0.08858547,9.31823349,0.00517404,-0.01407424,-0.00194813
3869.077643,0.99997157,0.00255857,-0.00702838,-0.00094607,-0.02130529,0.00426106,0.00213053,-0.00598550,-0.01077391,9.34097767,0.00513081,-0.01405199,-0.00192825
3869.079465,0.99997163,0.00255359,-0.00702599,-0.00093910,-0.01384844,-0.00319579,0.01171791,-0.00598550,-0.01077391,9.34097767,0.00512076,-0.01404725,-0.00191422
3869.081445,0.99997163,0.00254258,-0.00702809,-0.00092929,-0.01491370,-0.01384844,-0.00106526,-0.01316811,-0.16998832,9.35773754,0.00509860,-0.01405152,-0.00189446
3869.083448,0.99997175,0.00253567,-0.00702611,-0.00092121,-0.00852211,0.00106526,0.00745685,-0.01316811,-0.16998832,9.35773754,0.00508466,-0.01404760,-0.00187819
3869.085452,0.99997175,0.00253317,-0.00702059,-0.00091752,-0.00852211,0.00319579,0.00532632,-0.01316811,-0.16998832,9.35773754,0.00507960,-0.01403660,-0.00187075
3869.087456,0.99997175,0.00253285,-0.00702185,-0.00092175,0.00426106,-0.00426106,-0.00532632,-0.02154781,-0.24301147,9.27513695,0.00507903,-0.01403910,-0.00187920
3869.089143,0.99997175,0.00254435,-0.00701679,-0.00092306,0.00852211,0.00532632,-0.00213053,-0.02154781,-0.24301147,9.27513695,0.00510204,-0.01402894,-0.00188196
3869.091464,0.99997169,0.00254593,-0.00701986,-0.00092570,0.00106526,-0.01384844,-0.00745685,-0.02154781,-0.24301147,9.27513695,0.00510524,-0.01403508,-0.00188728
3869.093385,0.99997157,0.00257274,-0.00702285,-0.00092127,0.01491370,0.00000000,-0.00213053,-0.05267244,-0.33877954,9.31583881,0.00515880,-0.01404103,-0.00187881
3869.095449,0.99997163,0.00258734,-0.00701910,-0.00092422,0.01278317,-0.00426106,-0.00213053,-0.05267244,-0.33877954,9.31583881,0.00518805,-0.01403349,-0.00188489
3869.097432,0.99997157,0.00259738,-0.00701664,-0.00092441,0.01917476,-0.00319579,-0.00213053,-0.05386954,-0.13886370,9.33259869,0.00520811,-0.01402855,-0.00188540
3869.099473,0.99997157,0.00260454,-0.00702193,-0.00092603,0.00532632,-0.01704423,0.00000000,-0.05386954,-0.13886370,9.33259869,0.00522247,-0.01403910,-0.00188878
3869.101478,0.99997157,0.00259910,-0.00701913,-0.00093771,-0.01065264,-0.00852211,-0.01384844,-0.05147533,-0.08738836,9.27872849,0.00521176,-0.01403346,-0.00191204
3869.103474,0.99997157,0.00259567,-0.00701898,-0.00095044,-0.00958738,-0.00745685,-0.02130529,-0.05147533,-0.08738836,9.27872849,0.00520508,-0.01403308,-0.00193745
3869.105601,0.99997157,0.00258776,-0.00701982,-0.00096361,-0.01597896,-0.00319579,-0.01171791,-0.08379706,-0.11252748,9.35773754,0.00518944,-0.01403471,-0.00196370
3869.107394,0.99997163,0.00257687,-0.00701569,-0.00097522,-0.01171791,-0.01278317,-0.01597896,-0.08379706,-0.11252748,9.35773754,0.00516781,-0.01402642,-0.00198673
3869.109194,0.99997163,0.00257069,-0.00701624,-0.00098097,-0.01491370,-0.00958738,-0.01384844,-0.08379706,-0.11252748,9.35773754,0.00515553,-0.01402751,-0.00199815
3869.111628,0.99997151,0.00256297,-0.00702134,-0.00099406,0.00213053,-0.01597896,-0.00745685,-0.11013328,-0.13527240,9.33259869,0.00514029,-0.01403764,-0.00202426
3869.113682,0.99997157,0.00255970,-0.00701574,-0.00101059,-0.00958738,0.00213053,-0.01278317,-0.11013328,-0.13527240,9.33259869,0.00513396,-0.01402638,-0.00205724
3869.115644,0.99997163,0.00256046,-0.00700971,-0.00101920,-0.00106526,0.00319579,-0.01917476,-0.11013328,-0.13527240,9.33259869,0.00513559,-0.01401426,-0.00207445
3869.117475,0.99997163,0.00255996,-0.00700229,-0.00103153,-0.00426106,-0.01065264,-0.00745685,-0.12928689,-0.28012159,9.33499241,0.00513475,-0.01399936,-0.00209905
3869.119495,0.99997157,0.00256291,-0.00700562,-0.00103684,0.00426106,-0.01597896,-0.01278317,-0.12928689,-0.28012159,9.33499241,0.00514072,-0.01400598,-0.00210973
3869.121427,0.99997157,0.00256323,-0.00700579,-0.00104641,0.00000000,-0.00213053,-0.00958738,-0.09696517,-0.25378537,9.31344414,0.00514151,-0.01400628,-0.00212889
3869.123428,0.99997157,0.00257465,-0.00700221,-0.00105087,0.01491370,-0.00852211,-0.01810949,-0.09696517,-0.25378537,9.31344414,0.00516440,-0.01399908,-0.00213796
3869.125353,0.99997163,0.00257983,-0.00700144,-0.00106374,0.00319579,-0.01384844,-0.01278317,-0.07182605,-0.19512744,9.34337234,0.00517494,-0.01399745,-0.00216375
3869.127353,0.99997157,0.00257983,-0.00699786,-0.00106804,-0.00106526,-0.00213053,-0.01065264,-0.07182605,-0.19512744,9.34337234,0.00517499,-0.01399027,-0.00217235
3869.129599,0.99997169,0.00258323,-0.00698453,-0.00107573,-0.00426106,0.00213053,-0.01171791,-0.07182605,-0.19512744,9.34337234,0.00518186,-0.01396356,-0.00218771
3869.131446,0.99997157,0.00258289,-0.00699220,-0.00108093,-0.00213053,-0.02450108,-0.01278317,-0.10773908,-0.05746084,9.32781029,0.00518127,-0.01397887,-0.00219814
3869.133635,0.99997157,0.00257795,-0.00699193,-0.00108510,-0.01384844,0.00000000,0.00532632,-0.10773908,-0.05746084,9.32781029,0.00517146,-0.01397833,-0.00220641
3869.135392,0.99997169,0.00257552,-0.00697877,-0.00108309,-0.00213053,-0.00745685,0.00426106,-0.12210429,-0.09097967,9.33379555,0.00516654,-0.01395203,-0.00220229
3869.137445,0.99997181,0.00256731,-0.00697979,-0.00107919,-0.01810949,-0.00426106,-0.00106526,-0.12210429,-0.09097967,9.33379555,0.00515007,-0.01395409,-0.00219438
3869.139399,0.99997181,0.00256082,-0.00697393,-0.00108183,-0.01597896,0.00213053,-0.00745685,-0.12210429,-0.09097967,9.33379555,0.00513710,-0.01394238,-0.00219953
3869.141468,0.99997181,0.00255115,-0.00697762,-0.00108051,-0.00426106,-0.01065264,-0.00745685,-0.06823475,-0.12928689,9.30267048,0.00511776,-0.01394979,-0.00219678
3869.143414,0.99997181,0.00255054,-0.00697671,-0.00107996,-0.00532632,-0.00852211,0.00319579,-0.06823475,-0.12928689,9.30267048,0.00511653,-0.01394797,-0.00219565
3869.145218,0.99997181,0.00255366,-0.00698059,-0.00108153,0.00319579,-0.01704423,-0.00532632,-0.06823475,-0.12928689,9.30267048,0.00512280,-0.01395571,-0.00219886
3869.147616,0.99997175,0.00255232,-0.00698580,-0.00107233,-0.01278317,-0.01171791,0.00745685,-0.05985504,-0.16998832,9.32900715,0.00512000,-0.01396618,-0.00218048
3869.149621,0.99997175,0.00254981,-0.00698942,-0.00106796,-0.00426106,-0.00958738,-0.00426106,-0.05985504,-0.16998832,9.32900715,0.00511492,-0.01397346,-0.00217171
3869.151654,0.99997175,0.00255106,-0.00699081,-0.00106901,0.00000000,-0.01171791,-0.00426106,-0.03112462,-0.22984336,9.39365005,0.00511744,-0.01397623,-0.00217384
3869.153740,0.99997175,0.00255954,-0.00698793,-0.00104625,0.00639159,-0.00958738,0.00426106,-0.03112462,-0.22984336,9.39365005,0.00513409,-0.01397057,-0.00212843
3869.155659,0.99997175,0.00256648,-0.00699086,-0.00103298,0.00852211,-0.00319579,0.01384844,-0.00598550,-0.20350714,9.35414600,0.00514779,-0.01397648,-0.00210200
3869.157721,0.99997169,0.00256487,-0.00699292,-0.00102547,-0.00532632,-0.01278317,0.01278317,-0.00598550,-0.20350714,9.35414600,0.00514446,-0.01398064,-0.00208695
3869.159526,0.99997163,0.00257246,-0.00700438,-0.00101795,0.00106526,-0.02130529,0.00213053,-0.00598550,-0.20350714,9.35414600,0.00515955,-0.01400358,-0.00207207
3869.161584,0.99997169,0.00257364,-0.00699853,-0.00100420,0.00000000,0.00319579,0.02556634,0.01316811,-0.10175357,9.35654068,0.00516172,-0.01399195,-0.00204456
3869.163351,0.99997169,0.00257658,-0.00698772,-0.00099055,0.00213053,0.00000000,0.00745685,0.01316811,-0.10175357,9.35654068,0.00516738,-0.01397040,-0.00201724
3869.165620,0.99997175,0.00257485,-0.00699871,-0.00097330,-0.00426106,-0.01491370,0.00426106,-0.00957681,0.00119710,9.32062721,0.00516371,-0.01399248,-0.00198278
3869.167657,0.99997187,0.00255692,-0.00698984,-0.00096782,-0.02024002,-0.00426106,0.00426106,-0.00957681,0.00119710,9.32062721,0.00512775,-0.01397479,-0.00197153
3869.169733,0.99997181,0.00256084,-0.00699774,-0.00096989,0.00426106,-0.02343581,-0.00639159,-0.00957681,0.00119710,9.32062721,0.00513564,-0.01399058,-0.00197576
3869.171628,0.99997193,0.00254174,-0.00699338,-0.00095526,-0.01597896,0.00532632,0.00532632,-0.02873042,-0.12569559,9.30865574,0.00509722,-0.01398197,-0.00194621
3869.173893,0.99997199,0.00253511,-0.00698359,-0.00095263,-0.01704423,0.01171791,0.00319579,-0.02873042,-0.12569559,9.30865574,0.00508389,-0.01396241,-0.00194081
3869.175320,0.99997193,0.00252493,-0.00699114,-0.00094703,-0.01384844,-0.02450108,0.00106526,-0.02873042,-0.12569559,9.30865574,0.00506348,-0.01397756,-0.00192949
3869.177462,0.99997193,0.00250961,-0.00699099,-0.00093719,-0.00426106,-0.01065264,0.00745685,-0.01556231,-0.20350714,9.28471375,0.00503270,-0.01397735,-0.00190960
3869.179462,0.99997216,0.00250830,-0.00697825,-0.00092670,-0.00639159,0.00532632,0.00106526,-0.01556231,-0.20350714,9.28471375,0.00502991,-0.01395192,-0.00188854
3869.181694,0.99997205,0.00251163,-0.00698015,-0.00092459,0.00426106,-0.01171791,0.00213053,-0.06464344,-0.31483752,9.28232002,0.00503655,-0.01395571,-0.00188437
3869.183752,0.99997205,0.00252437,-0.00697925,-0.00092319,0.00958738,-0.02024002,0.00319579,-0.06464344,-0.31483752,9.28232002,0.00506199,-0.01395390,-0.00188176
3869.185705,0.99997205,0.00253515,-0.00697683,-0.00092126,0.00958738,-0.00639159,-0.00213053,-0.09457096,-0.25139117,9.28710842,0.00508353,-0.01394906,-0.00187804
3869.187720,0.99997205,0.00254267,-0.00697895,-0.00091655,0.01384844,-0.01278317,0.00745685,-0.09457096,-0.25139117,9.28710842,0.00509851,-0.01395330,-0.00186873
3869.189655,0.99997187,0.00255359,-0.00699165,-0.00091972,0.00319579,-0.01065264,-0.00319579,-0.09457096,-0.25139117,9.28710842,0.00512041,-0.01397866,-0.00187528
3869.191419,0.99997193,0.00254742,-0.00698616,-0.00092876,-0.00745685,-0.00745685,-0.01810949,-0.09816227,-0.05027824,9.29907894,0.00510820,-0.01396765,-0.00189324
3869.193628,0.99997199,0.00254564,-0.00698444,-0.00093408,-0.00532632,-0.00532632,-0.01278317,-0.09816227,-0.05027824,9.29907894,0.00510471,-0.01396419,-0.00190385
3869.195419,0.99997199,0.00253870,-0.00698362,-0.00092969,-0.00532632,-0.00106526,-0.00106526,-0.09457096,-0.07302316,9.38167953,0.00509075,-0.01396258,-0.00189498
3869.197353,0.99997205,0.00252811,-0.00697997,-0.00093915,-0.01597896,-0.00213053,-0.01704423,-0.09457096,-0.07302316,9.38167953,0.00506971,-0.01395525,-0.00191373
3869.199433,0.99997199,0.00252321,-0.00698236,-0.00094276,-0.01278317,-0.01384844,-0.00958738,-0.09457096,-0.07302316,9.38167953,0.00505995,-0.01396003,-0.00192089
3869.201604,0.99997211,0.00250223,-0.00697343,-0.00095372,-0.00213053,-0.00106526,-0.01704423,-0.11731588,-0.14245500,9.37569427,0.00501813,-0.01394215,-0.00194247
3869.203746,0.99997222,0.00247809,-0.00697260,-0.00095760,-0.02450108,-0.00639159,-0.01171791,-0.11731588,-0.14245500,9.37569427,0.00496990,-0.01394051,-0.00194989
3869.205730,0.99997228,0.00247804,-0.00696305,-0.00095666,-0.00319579,0.00958738,0.00000000,-0.11731588,-0.14245500,9.37569427,0.00496976,-0.01392143,-0.00194796
3869.207706,0.99997222,0.00248204,-0.00696277,-0.00096521,-0.00639159,-0.01491370,-0.00745685,-0.10773908,-0.20350714,9.31583881,0.00497789,-0.01392081,-0.00196511
3869.209496,0.99997228,0.00248978,-0.00695699,-0.00096805,0.00639159,0.00426106,0.00106526,-0.10773908,-0.20350714,9.31583881,0.00499340,-0.01390922,-0.00197088
3869.211735,0.99997228,0.00249139,-0.00695281,-0.00097025,0.00106526,-0.00106526,-0.00639159,-0.06823475,-0.25019407,9.31703568,0.00499663,-0.01390085,-0.00197529
3869.213552,0.99997222,0.00251166,-0.00695594,-0.00097795,0.00532632,-0.02130529,-0.00639159,-0.06823475,-0.25019407,9.31703568,0.00503730,-0.01390703,-0.00199097
3869.215446,0.99997211,0.00251786,-0.00695539,-0.00099135,0.00639159,-0.01278317,-0.01704423,-0.09816227,-0.19153613,9.33140087,0.00504988,-0.01390585,-0.00201787
3869.217629,0.99997211,0.00252556,-0.00695451,-0.00099360,0.01384844,-0.00745685,-0.00639159,-0.09816227,-0.19153613,9.33140087,0.00506532,-0.01390405,-0.00202248
3869.219775,0.99997205,0.00253135,-0.00695487,-0.00100060,0.00319579,-0.00852211,-0.00852211,-0.09816227,-0.19153613,9.33140087,0.00507699,-0.01390473,-0.00203655
3869.221613,0.99997199,0.00254315,-0.00696120,-0.00100758,0.00426106,-0.01171791,-0.01065264,-0.08738836,-0.06703765,9.33978081,0.00510070,-0.01391734,-0.00205071
3869.223631,0.99997199,0.00254904,-0.00696356,-0.00101348,0.00958738,-0.01384844,-0.01384844,-0.08738836,-0.06703765,9.33978081,0.00511257,-0.01392201,-0.00206261
3869.225631,0.99997205,0.00254019,-0.00695732,-0.00103151,-0.01384844,-0.01491370,-0.01597896,-0.07781155,-0.00359130,9.37210274,0.00509510,-0.01390945,-0.00209852
3869.227376,0.99997205,0.00254120,-0.00695902,-0.00105172,-0.00106526,-0.00319579,-0.01384844,-0.07781155,-0.00359130,9.37210274,0.00509740,-0.01391275,-0.00213896
3869.229602,0.99997199,0.00254195,-0.00695608,-0.00105655,-0.00213053,-0.00319579,-0.01171791,-0.07781155,-0.00359130,9.37210274,0.00509898,-0.01390685,-0.00214862
3869.231398,0.99997187,0.00253024,-0.00697017,-0.00105878,-0.01704423,-0.02130529,-0.00532632,-0.03112462,-0.10654198,9.33140087,0.00507561,-0.01393503,-0.00215298
3869.233595,0.99997193,0.00252768,-0.00697463,-0.00105918,-0.00213053,-0.00532632,0.00000000,-0.03112462,-0.10654198,9.33140087,0.00507051,-0.01394397,-0.00215376
3869.235643,0.99997187,0.00252447,-0.00698025,-0.00105689,0.00000000,-0.02343581,0.00000000,-0.05506664,-0.21068975,9.30506516,0.00506406,-0.01395522,-0.00214917
3869.237730,0.99997175,0.00253080,-0.00699452,-0.00106154,0.00213053,-0.02237055,-0.00319579,-0.05506664,-0.21068975,9.30506516,0.00507683,-0.01398374,-0.00215864
3869.239765,0.99997175,0.00252329,-0.00699330,-0.00105664,-0.01810949,-0.00639159,0.00745685,-0.05506664,-0.21068975,9.30506516,0.00506174,-0.01398132,-0.00214873
3869.241734,0.99997175,0.00253020,-0.00699532,-0.00105776,0.00532632,-0.01065264,0.00319579,-0.03830723,-0.24779987,9.33858395,0.00507557,-0.01398535,-0.00215108
3869.243638,0.99997163,0.00254145,-0.00699740,-0.00105682,0.01065264,-0.00426106,-0.00213053,-0.03830723,-0.24779987,9.33858395,0.00509807,-0.01398948,-0.00214936
3869.245405,0.99997169,0.00254442,-0.00699156,-0.00105162,0.00000000,0.00319579,0.00532632,0.00957681,-0.20709845,9.29788208,0.00510393,-0.01397783,-0.00213897
3869.247629,0.99997169,0.00254861,-0.00699212,-0.00104421,0.00639159,-0.00958738,0.01278317,0.00957681,-0.20709845,9.29788208,0.00511219,-0.01397898,-0.00212422
3869.249447,0.99997175,0.00256564,-0.00698952,-0.00103545,0.01278317,-0.00106526,0.00213053,0.00957681,-0.20709845,9.29788208,0.00514613,-0.01397379,-0.00210692
3869.251682,0.99997175,0.00256714,-0.00698633,-0.00102593,-0.00426106,-0.01065264,0.00639159,0.00837971,-0.11372458,9.32421875,0.00514899,-0.01396745,-0.00208788
3869.253589,0.99997175,0.00256562,-0.00698928,-0.00101947,-0.00532632,-0.01384844,0.01065264,0.00837971,-0.11372458,9.32421875,0.00514587,-0.01397339,-0.00207495
3869.255284,0.99997175,0.00255722,-0.00699459,-0.00100488,-0.01171791,-0.01704423,0.00000000,-0.01556231,0.00119710,9.35534286,0.00512888,-0.01398411,-0.00204567
3869.257372,0.99997175,0.00254611,-0.00699798,-0.00099719,-0.01704423,-0.01065264,0.00532632,-0.01556231,0.00119710,9.35534286,0.00510655,-0.01399095,-0.00203016
3869.259586,0.99997175,0.00254423,-0.00699886,-0.00099235,-0.00745685,-0.00958738,0.00745685,-0.01556231,0.00119710,9.35534286,0.00510272,-0.01399274,-0.00202045
3869.261680,0.99997181,0.00253068,-0.00699372,-0.00098901,-0.02663161,-0.00532632,0.00426106,-0.03591302,-0.14245500,9.37329960,0.00507556,-0.01398249,-0.00201356
3869.263629,0.99997199,0.00250327,-0.00698553,-0.00098018,-0.02024002,-0.00426106,0.00532632,-0.03591302,-0.14245500,9.37329960,0.00502060,-0.01396621,-0.00199547
3869.265674,0.99997205,0.00249900,-0.00698214,-0.00097803,-0.01171791,-0.00106526,0.00213053,0.02394202,-0.19033903,9.33978081,0.00501202,-0.01395945,-0.00199109
3869.267650,0.99997211,0.00248834,-0.00697234,-0.00097960,-0.00852211,0.00319579,0.00000000,0.02394202,-0.19033903,9.33978081,0.00499071,-0.01393987,-0.00199405
3869.269881,0.99997211,0.00248907,-0.00697720,-0.00098380,-0.00106526,-0.01704423,-0.01065264,0.02394202,-0.19033903,9.33978081,0.00499223,-0.01394956,-0.00200248
3869.271695,0.99997199,0.00250071,-0.00698522,-0.00098652,0.02024002,-0.01597896,-0.00639159,-0.00718261,-0.32202014,9.31823349,0.00501557,-0.01396556,-0.00200813
3869.273547,0.99997205,0.00251453,-0.00698246,-0.00098359,0.01065264,0.00000000,0.01171791,-0.00718261,-0.32202014,9.31823349,0.00504317,-0.01396004,-0.00200244
3869.275638,0.99997187,0.00252016,-0.00699175,-0.00098674,-0.00426106,-0.02450108,-0.00532632,-0.10295067,-0.29089549,9.35893440,0.00505450,-0.01397859,-0.00200887
3869.277489,0.99997187,0.00253458,-0.00699488,-0.00099172,0.01491370,0.00000000,-0.00319579,-0.10295067,-0.29089549,9.35893440,0.00508341,-0.01398479,-0.00201903
3869.279641,0.99997187,0.00254645,-0.00699019,-0.00098930,0.00958738,-0.00745685,-0.00426106,-0.07302316,-0.10534488,9.29189682,0.00510710,-0.01397539,-0.00201435
3869.281691,0.99997181,0.00254652,-0.00699345,-0.00099245,0.00213053,-0.01278317,-0.00639159,-0.07302316,-0.10534488,9.29189682,0.00510730,-0.01398191,-0.00202066
3869.283698,0.99997175,0.00254675,-0.00699716,-0.00099240,-0.00106526,-0.01597896,-0.00213053,-0.07302316,-0.10534488,9.29189682,0.00510776,-0.01398932,-0.00202057
3869.285639,0.99997169,0.00254806,-0.00700716,-0.00100024,-0.00532632,-0.01491370,-0.01491370,-0.08858547,-0.05147533,9.39724159,0.00511051,-0.01400929,-0.00203633
3869.287645,0.99997169,0.00253935,-0.00700331,-0.00101240,-0.00745685,0.00000000,-0.01597896,-0.08858547,-0.05147533,9.39724159,0.00509325,-0.01400154,-0.00206051
3869.289487,0.99997175,0.00253701,-0.00699842,-0.00101829,-0.00745685,0.00106526,-0.01384844,-0.08858547,-0.05147533,9.39724159,0.00508866,-0.01399173,-0.00207223
3869.291468,0.99997181,0.00252418,-0.00698890,-0.00103525,-0.01065264,-0.00852211,-0.01065264,-0.09696517,-0.13168110,9.38766479,0.00506321,-0.01397264,-0.00210593
3869.293302,0.99997193,0.00252289,-0.00697983,-0.00103694,-0.00106526,0.00426106,-0.00958738,-0.09696517,-0.13168110,9.38766479,0.00506063,-0.01395448,-0.00210924
3869.295366,0.99997193,0.00252048,-0.00697587,-0.00104387,-0.00745685,-0.00106526,-0.01597896,-0.10893618,-0.20111294,9.32062721,0.00505590,-0.01394654,-0.00212306
3869.297486,0.99997205,0.00251141,-0.00696320,-0.00105614,-0.01491370,0.01597896,-0.00745685,-0.10893618,-0.20111294,9.32062721,0.00503791,-0.01392115,-0.00214741
3869.299494,0.99997199,0.00251731,-0.00696196,-0.00106315,0.00532632,-0.01278317,-0.00745685,-0.07182605,-0.26575640,9.29069996,0.00504980,-0.01391863,-0.00216151
3869.301652,0.99997193,0.00252301,-0.00696698,-0.00106795,0.00958738,-0.01917476,-0.01171791,-0.07182605,-0.26575640,9.29069996,0.00506126,-0.01392864,-0.00217121
3869.303544,0.99997187,0.00252420,-0.00697886,-0.00107683,-0.00106526,-0.01917476,-0.00106526,-0.07182605,-0.26575640,9.29069996,0.00506381,-0.01395235,-0.00218904
3869.305581,0.99997181,0.00253179,-0.00698391,-0.00107846,0.01384844,-0.01917476,-0.00532632,-0.05865794,-0.23702596,9.35773754,0.00507902,-0.01396243,-0.00219243
3869.307380,0.99997169,0.00254856,-0.00698867,-0.00107597,0.01171791,-0.01491370,-0.00319579,-0.05865794,-0.23702596,9.35773754,0.00511253,-0.01397192,-0.00218771
3869.309413,0.99997169,0.00255755,-0.00698786,-0.00108783,-0.00106526,-0.00639159,-0.01065264,-0.05865794,-0.23702596,9.35773754,0.00513067,-0.01397021,-0.00221155
3869.311424,0.99997157,0.00257000,-0.00699323,-0.00110976,0.00319579,-0.00852211,-0.00852211,-0.09935937,-0.14844051,9.32062721,0.00515590,-0.01398081,-0.00225563
3869.313429,0.99997163,0.00256762,-0.00699558,-0.00111021,-0.00639159,-0.01384844,-0.00319579,-0.09935937,-0.14844051,9.32062721,0.00515115,-0.01398551,-0.00225651
3869.315483,0.99997163,0.00256067,-0.00700208,-0.00111371,-0.00852211,-0.00639159,-0.00213053,-0.07900865,0.00478840,9.32182407,0.00513731,-0.01399851,-0.00226345
3869.317492,0.99997163,0.00255785,-0.00699290,-0.00111325,-0.00639159,0.00000000,0.00213053,-0.07900865,0.00478840,9.32182407,0.00513166,-0.01398016,-0.00226243
3869.319949,0.99997175,0.00255438,-0.00698980,-0.00110524,-0.01065264,-0.00319579,0.01384844,-0.07900865,0.00478840,9.32182407,0.00512459,-0.01397401,-0.00224634
3869.321543,0.99997163,0.00253603,-0.00700011,-0.00110209,-0.00745685,-0.02130529,-0.00106526,-0.05985504,-0.04429273,9.36731434,0.00508787,-0.01399469,-0.00223985
3869.323456,0.99997163,0.00252414,-0.00700328,-0.00109544,-0.01384844,-0.01917476,-0.00213053,-0.05985504,-0.04429273,9.36731434,0.00506400,-0.01400108,-0.00222639
3869.325460,0.99997169,0.00251862,-0.00700636,-0.00109796,-0.01491370,-0.01491370,-0.00745685,-0.00598550,-0.13048400,9.31943035,0.00505299,-0.01400725,-0.00223137
3869.327393,0.99997163,0.00251942,-0.00701485,-0.00110154,-0.00319579,-0.00958738,0.00106526,-0.00598550,-0.13048400,9.31943035,0.00505467,-0.01402421,-0.00223858
3869.329621,0.99997163,0.00251655,-0.00701808,-0.00109557,-0.00106526,-0.01065264,-0.00319579,-0.05865794,-0.28371289,9.31943035,0.00504885,-0.01403071,-0.00222661
3869.331713,0.99997145,0.00251881,-0.00703513,-0.00109053,-0.00426106,-0.03408846,0.00639159,-0.05865794,-0.28371289,9.31943035,0.00505334,-0.01406482,-0.00221667
3869.333480,0.99997145,0.00252168,-0.00702967,-0.00107946,-0.00319579,0.00106526,0.01065264,-0.05865794,-0.28371289,9.31943035,0.00505890,-0.01405395,-0.00219453
3869.335261,0.99997151,0.00252597,-0.00703109,-0.00106351,0.00213053,-0.00852211,0.01597896,-0.03830723,-0.21188685,9.35893440,0.00506728,-0.01405687,-0.00216270
3869.337600,0.99997145,0.00253654,-0.00703321,-0.00105938,0.01917476,-0.01278317,0.00639159,-0.03830723,-0.21188685,9.35893440,0.00508836,-0.01406111,-0.00215459
3869.339473,0.99997145,0.00255799,-0.00703011,-0.00104908,0.00958738,-0.00639159,0.00958738,-0.00359130,-0.14963761,9.34576607,0.00513112,-0.01405492,-0.00213428
3869.341704,0.99997145,0.00256650,-0.00702921,-0.00103643,0.00532632,-0.00958738,0.00426106,-0.00359130,-0.14963761,9.34576607,0.00514795,-0.01405316,-0.00210910
3869.343510,0.99997145,0.00256382,-0.00703311,-0.00103314,-0.00745685,-0.01597896,0.00426106,-0.00359130,-0.14963761,9.34576607,0.00514256,-0.01406098,-0.00210249
3869.345490,0.99997151,0.00255658,-0.00702088,-0.00101881,-0.01384844,0.00639159,0.00426106,-0.02154781,0.01915361,9.33499241,0.00512785,-0.01403660,-0.00207368
3869.347657,0.99997151,0.00254399,-0.00702618,-0.00101640,-0.01278317,-0.02237055,0.00000000,-0.02154781,0.01915361,9.33499241,0.00510264,-0.01404724,-0.00206870
3869.349695,0.99997163,0.00253476,-0.00702691,-0.00101145,-0.02237055,-0.00958738,0.00745685,-0.02154781,0.01915361,9.33499241,0.00508412,-0.01404876,-0.00205866
3869.351701,0.99997175,0.00251789,-0.00700760,-0.00099121,-0.00852211,0.00852211,0.01597896,-0.04908114,-0.08978257,9.36851120,0.00505006,-0.01401026,-0.00201785
3869.353461,0.99997181,0.00250696,-0.00701262,-0.00098136,-0.01704423,-0.01704423,0.00426106,-0.04908114,-0.08978257,9.36851120,0.00502805,-0.01402038,-0.00199802
3869.355419,0.99997199,0.00250001,-0.00700019,-0.00097290,-0.00852211,0.00745685,0.00639159,0.00359130,-0.18315643,9.38048267,0.00501401,-0.01399558,-0.00198094
3869.357667,0.99997205,0.00250698,-0.00698859,-0.00097423,0.00639159,-0.00426106,-0.00106526,0.00359130,-0.18315643,9.38048267,0.00502795,-0.01397236,-0.00198364
3869.359607,0.99997193,0.00250971,-0.00699269,-0.00098486,-0.00319579,-0.01278317,-0.00852211,0.00598550,-0.27653030,9.29668522,0.00503357,-0.01398050,-0.00200496
3869.361685,0.99997193,0.00251207,-0.00699250,-0.00098063,0.00213053,-0.00745685,0.00639159,0.00598550,-0.27653030,9.29668522,0.00503823,-0.01398014,-0.00199654
3869.363753,0.99997187,0.00253254,-0.00699765,-0.00098460,0.01171791,-0.01597896,-0.00532632,0.00598550,-0.27653030,9.29668522,0.00507924,-0.01399038,-0.00200478
3869.365669,0.99997169,0.00253705,-0.00700220,-0.00098993,0.00000000,-0.01491370,-0.00639159,-0.07182605,-0.30406362,9.35893440,0.00508834,-0.01399944,-0.00201553
3869.367683,0.99997175,0.00254128,-0.00700253,-0.00099266,0.00745685,-0.00852211,-0.00745685,-0.07182605,-0.30406362,9.35893440,0.00509684,-0.01400007,-0.00202105
3869.369782,0.99997175,0.00255266,-0.00699987,-0.00099980,0.01491370,-0.00106526,-0.01065264,-0.07182605,-0.30406362,9.35893440,0.00511969,-0.01399470,-0.00203548
3869.371441,0.99997169,0.00256409,-0.00699959,-0.00100583,0.00745685,0.00426106,-0.00532632,-0.10414778,-0.09935937,9.29189682,0.00514264,-0.01399408,-0.00204771
3869.373663,0.99997175,0.00256067,-0.00699476,-0.00100798,-0.00852211,0.00106526,-0.00639159,-0.10414778,-0.09935937,9.29189682,0.00513582,-0.01398441,-0.00205193
3869.375887,0.99997187,0.00255316,-0.00698538,-0.00101704,-0.01597896,-0.01171791,-0.00958738,-0.09816227,-0.06344634,9.33259869,0.00512090,-0.01396564,-0.00206990
3869.377510,0.99997175,0.00254937,-0.00698876,-0.00102384,-0.00532632,-0.01597896,-0.01065264,-0.09816227,-0.06344634,9.33259869,0.00511343,-0.01397235,-0.00208345
3869.379456,0.99997181,0.00254437,-0.00698539,-0.00103019,-0.01278317,-0.00213053,-0.01491370,-0.09816227,-0.06344634,9.33259869,0.00510351,-0.01396559,-0.00209608
3869.381525,0.99997187,0.00253108,-0.00697702,-0.00104393,-0.01171791,-0.00639159,-0.01491370,-0.12928689,-0.12808979,9.37689114,0.00507711,-0.01394882,-0.00212332
3869.383538,0.99997193,0.00252875,-0.00697402,-0.00105138,-0.00745685,-0.00319579,-0.01704423,-0.12928689,-0.12808979,9.37689114,0.00507254,-0.01394277,-0.00213818
3869.385691,0.99997199,0.00252141,-0.00696355,-0.00106099,-0.00852211,0.00106526,-0.01171791,-0.13886370,-0.22984336,9.34337234,0.00505797,-0.01392180,-0.00215724
3869.387705,0.99997205,0.00251367,-0.00695506,-0.00107747,-0.00319579,-0.00852211,-0.01384844,-0.13886370,-0.22984336,9.34337234,0.00504270,-0.01390476,-0.00219005
3869.389509,0.99997216,0.00250721,-0.00694259,-0.00108126,-0.01171791,-0.00106526,-0.00532632,-0.12808979,-0.22026655,9.28112316,0.00502980,-0.01387982,-0.00219748
3869.391712,0.99997211,0.00251129,-0.00694626,-0.00108711,0.00639159,-0.01704423,-0.01384844,-0.12808979,-0.22026655,9.28112316,0.00503805,-0.01388711,-0.00220927
3869.393700,0.99997211,0.00251271,-0.00694540,-0.00110096,0.00319579,-0.00319579,-0.01278317,-0.12808979,-0.22026655,9.28112316,0.00504107,-0.01388533,-0.00223698
3869.395669,0.99997205,0.00252967,-0.00694850,-0.00110754,0.02343581,-0.01491370,-0.00958738,-0.06823475,-0.22266077,9.30865574,0.00507510,-0.01389145,-0.00225040
3869.397650,0.99997199,0.00253837,-0.00694959,-0.00111138,0.01597896,-0.01171791,-0.00958738,-0.06823475,-0.22266077,9.30865574,0.00509255,-0.01389360,-0.00225820
3869.399648,0.99997193,0.00255018,-0.00694963,-0.00110674,0.00852211,-0.01491370,-0.00532632,-0.09457096,-0.21428105,9.37090588,0.00511612,-0.01389367,-0.00224908
3869.401638,0.99997193,0.00256435,-0.00694922,-0.00110694,0.00745685,-0.00745685,-0.00745685,-0.09457096,-0.21428105,9.37090588,0.00514446,-0.01389281,-0.00224968
3869.403615,0.99997187,0.00257035,-0.00695035,-0.00110701,0.01065264,-0.01171791,-0.00213053,-0.09457096,-0.21428105,9.37090588,0.00515647,-0.01389506,-0.00224990
3869.405447,0.99997187,0.00257870,-0.00695162,-0.00110922,0.00106526,-0.00745685,0.00000000,-0.10414778,-0.04309563,9.32421875,0.00517319,-0.01389758,-0.00225445
3869.407435,0.99997181,0.00258964,-0.00695756,-0.00110874,0.00852211,-0.01491370,0.00213053,-0.10414778,-0.04309563,9.32421875,0.00519510,-0.01390944,-0.00225367
3869.409647,0.99997181,0.00258948,-0.00695702,-0.00110607,-0.00319579,-0.00852211,0.00319579,-0.10414778,-0.04309563,9.32421875,0.00519472,-0.01390837,-0.00224832
